[{"STUDYID":"CDISCPILOT01","USUBJID":"01-701-1015","AESEQ":1,"AETERM":"APPLICATION SITE ERYTHEMA","AEDECOD":"APPLICATION SITE ERYTHEMA","AESOC":"GENERAL DISORDERS AND ADMINISTRATION SITE CONDITIONS","AESOCCD":null,"ASEV":"MILD","ASEVN":1,"AESER":"N","AREL":"PROBABLE","AEACN":"","AEOUT":"NOT RECOVERED/NOT RESOLVED","ASTDT":"2014-01-03","AENDT":null,"ASTDY":2,"AENDY":null,"TRTEMFL":"Y","AOCC01FL":"Y","AOCCFL":"Y","TRTP":"Placebo","TRT01P":"Placebo","TRT01PN":null,"TRT01A":"Placebo","SITEGR1":900,"SAFFL":"Y"},{"STUDYID":"CDISCPILOT01","USUBJID":"01-701-1015","AESEQ":2,"AETERM":"APPLICATION SITE PRURITUS","AEDECOD":"APPLICATION SITE PRURITUS","AESOC":"GENERAL DISORDERS AND ADMINISTRATION SITE CONDITIONS","AESOCCD":null,"ASEV":"MILD","ASEVN":1,"AESER":"N","AREL":"PROBABLE","AEACN":"","AEOUT":"NOT RECOVERED/NOT RESOLVED","ASTDT":"2014-01-03","AENDT":null,"ASTDY":2,"AENDY":null,"TRTEMFL":"Y","AOCC01FL":"Y","AOCCFL":null,"TRTP":"Placebo","TRT01P":"Placebo","TRT01PN":null,"TRT01A":"Placebo","SITEGR1":900,"SAFFL":"Y"},{"STUDYID":"CDISCPILOT01","USUBJID":"01-701-1015","AESEQ":3,"AETERM":"DIARRHOEA","AEDECOD":"DIARRHOEA","AESOC":"GASTROINTESTINAL DISORDERS","AESOCCD":null,"ASEV":"MILD","ASEVN":1,"AESER":"N","AREL":"REMOTE","AEACN":"","AEOUT":"RECOVERED/RESOLVED","ASTDT":"2014-01-09","AENDT":"2014-01-11","ASTDY":8,"AENDY":10,"TRTEMFL":"Y","AOCC01FL":"Y","AOCCFL":null,"TRTP":"Placebo","TRT01P":"Placebo","TRT01PN":null,"TRT01A":"Placebo","SITEGR1":900,"SAFFL":"Y"},{"STUDYID":"CDISCPILOT01","USUBJID":"01-701-1023","AESEQ":1,"AETERM":"ERYTHEMA","AEDECOD":"ERYTHEMA","AESOC":"SKIN AND SUBCUTANEOUS TISSUE DISORDERS","AESOCCD":null,"ASEV":"MILD","ASEVN":1,"AESER":"N","AREL":"POSSIBLE","AEACN":"","AEOUT":"NOT RECOVERED/NOT RESOLVED","ASTDT":"2012-08-07","AENDT":"2012-08-30","ASTDY":3,"AENDY":26,"TRTEMFL":"Y","AOCC01FL":null,"AOCCFL":"Y","TRTP":"Placebo","TRT01P":"Placebo","TRT01PN":null,"TRT01A":"Placebo","SITEGR1":900,"SAFFL":"Y"},{"STUDYID":"CDISCPILOT01","USUBJID":"01-701-1023","AESEQ":2,"AETERM":"ERYTHEMA","AEDECOD":"ERYTHEMA","AESOC":"SKIN AND SUBCUTANEOUS TISSUE DISORDERS","AESOCCD":null,"ASEV":"MODERATE","ASEVN":2,"AESER":"N","AREL":"PROBABLE","AEACN":"","AEOUT":"NOT RECOVERED/NOT RESOLVED","ASTDT":"2012-08-07","AENDT":null,"ASTDY":3,"AENDY":null,"TRTEMFL":"Y","AOCC01FL":"Y","AOCCFL":null,"TRTP":"Placebo","TRT01P":"Placebo","TRT01PN":null,"TRT01A":"Placebo","SITEGR1":900,"SAFFL":"Y"},{"STUDYID":"CDISCPILOT01","USUBJID":"01-701-1023","AESEQ":4,"AETERM":"ERYTHEMA","AEDECOD":"ERYTHEMA","AESOC":"SKIN AND SUBCUTANEOUS TISSUE DISORDERS","AESOCCD":null,"ASEV":"MILD","ASEVN":1,"AESER":"N","AREL":"POSSIBLE","AEACN":"","AEOUT":"RECOVERED/RESOLVED","ASTDT":"2012-08-07","AENDT":"2012-08-30","ASTDY":3,"AENDY":26,"TRTEMFL":"Y","AOCC01FL":null,"AOCCFL":null,"TRTP":"Placebo","TRT01P":"Placebo","TRT01PN":null,"TRT01A":"Placebo","SITEGR1":900,"SAFFL":"Y"},{"STUDYID":"CDISCPILOT01","USUBJID":"01-701-1023","AESEQ":3,"AETERM":"ATRIOVENTRICULAR BLOCK SECOND DEGREE","AEDECOD":"ATRIOVENTRICULAR BLOCK SECOND DEGREE","AESOC":"CARDIAC DISORDERS","AESOCCD":null,"ASEV":"MILD","ASEVN":1,"AESER":"N","AREL":"POSSIBLE","AEACN":"","AEOUT":"NOT RECOVERED/NOT RESOLVED","ASTDT":"2012-08-26","AENDT":null,"ASTDY":22,"AENDY":null,"TRTEMFL":"Y","AOCC01FL":"Y","AOCCFL":null,"TRTP":"Placebo","TRT01P":"Placebo","TRT01PN":null,"TRT01A":"Placebo","SITEGR1":900,"SAFFL":"Y"},{"STUDYID":"CDISCPILOT01","USUBJID":"01-701-1028","AESEQ":1,"AETERM":"APPLICATION SITE ERYTHEMA","AEDECOD":"APPLICATION SITE ERYTHEMA","AESOC":"GENERAL DISORDERS AND ADMINISTRATION SITE CONDITIONS","AESOCCD":null,"ASEV":"MILD","ASEVN":1,"AESER":"N","AREL":"POSSIBLE","AEACN":"","AEOUT":"NOT RECOVERED/NOT RESOLVED","ASTDT":"2013-07-21","AENDT":null,"ASTDY":3,"AENDY":null,"TRTEMFL":"Y","AOCC01FL":"Y","AOCCFL":"Y","TRTP":"Xanomeline High Dose","TRT01P":"Xanomeline High Dose","TRT01PN":null,"TRT01A":"Xanomeline High Dose","SITEGR1":900,"SAFFL":"Y"},{"STUDYID":"CDISCPILOT01","USUBJID":"01-701-1028","AESEQ":2,"AETERM":"APPLICATION SITE PRURITUS","AEDECOD":"APPLICATION SITE PRURITUS","AESOC":"GENERAL DISORDERS AND ADMINISTRATION SITE CONDITIONS","AESOCCD":null,"ASEV":"MILD","ASEVN":1,"AESER":"N","AREL":"PROBABLE","AEACN":"","AEOUT":"NOT RECOVERED/NOT RESOLVED","ASTDT":"2013-08-08","AENDT":null,"ASTDY":21,"AENDY":null,"TRTEMFL":"Y","AOCC01FL":"Y","AOCCFL":null,"TRTP":"Xanomeline High Dose","TRT01P":"Xanomeline High Dose","TRT01PN":null,"TRT01A":"Xanomeline High Dose","SITEGR1":900,"SAFFL":"Y"},{"STUDYID":"CDISCPILOT01","USUBJID":"01-701-1034","AESEQ":1,"AETERM":"APPLICATION SITE PRURITUS","AEDECOD":"APPLICATION SITE PRURITUS","AESOC":"GENERAL DISORDERS AND ADMINISTRATION SITE CONDITIONS","AESOCCD":null,"ASEV":"MILD","ASEVN":1,"AESER":"N","AREL":"PROBABLE","AEACN":"","AEOUT":"NOT RECOVERED/NOT RESOLVED","ASTDT":"2014-08-27","AENDT":null,"ASTDY":58,"AENDY":null,"TRTEMFL":"Y","AOCC01FL":"Y","AOCCFL":"Y","TRTP":"Xanomeline High Dose","TRT01P":"Xanomeline High Dose","TRT01PN":null,"TRT01A":"Xanomeline High Dose","SITEGR1":900,"SAFFL":"Y"},{"STUDYID":"CDISCPILOT01","USUBJID":"01-701-1034","AESEQ":2,"AETERM":"FATIGUE","AEDECOD":"FATIGUE","AESOC":"GENERAL DISORDERS AND ADMINISTRATION SITE CONDITIONS","AESOCCD":null,"ASEV":"MILD","ASEVN":1,"AESER":"N","AREL":"POSSIBLE","AEACN":"","AEOUT":"NOT RECOVERED/NOT RESOLVED","ASTDT":"2014-11-02","AENDT":null,"ASTDY":125,"AENDY":null,"TRTEMFL":"Y","AOCC01FL":"Y","AOCCFL":null,"TRTP":"Xanomeline High Dose","TRT01P":"Xanomeline High Dose","TRT01PN":null,"TRT01A":"Xanomeline High Dose","SITEGR1":900,"SAFFL":"Y"},{"STUDYID":"CDISCPILOT01","USUBJID":"01-701-1047","AESEQ":1,"AETERM":"HIATUS HERNIA","AEDECOD":"HIATUS HERNIA","AESOC":"GASTROINTESTINAL DISORDERS","AESOCCD":null,"ASEV":"MODERATE","ASEVN":2,"AESER":"N","AREL":"NONE","AEACN":"","AEOUT":"NOT RECOVERED/NOT RESOLVED","ASTDT":"2013-02-12","AENDT":"2013-02-12","ASTDY":1,"AENDY":1,"TRTEMFL":"Y","AOCC01FL":"Y","AOCCFL":"Y","TRTP":"Placebo","TRT01P":"Placebo","TRT01PN":null,"TRT01A":"Placebo","SITEGR1":900,"SAFFL":"Y"},{"STUDYID":"CDISCPILOT01","USUBJID":"01-701-1047","AESEQ":2,"AETERM":"HIATUS HERNIA","AEDECOD":"HIATUS HERNIA","AESOC":"GASTROINTESTINAL DISORDERS","AESOCCD":null,"ASEV":"MODERATE","ASEVN":2,"AESER":"N","AREL":"NONE","AEACN":"","AEOUT":"RECOVERED/RESOLVED","ASTDT":"2013-02-12","AENDT":"2013-02-12","ASTDY":1,"AENDY":1,"TRTEMFL":"Y","AOCC01FL":null,"AOCCFL":null,"TRTP":"Placebo","TRT01P":"Placebo","TRT01PN":null,"TRT01A":"Placebo","SITEGR1":900,"SAFFL":"Y"},{"STUDYID":"CDISCPILOT01","USUBJID":"01-701-1047","AESEQ":3,"AETERM":"UPPER RESPIRATORY TRACT INFECTION","AEDECOD":"UPPER RESPIRATORY TRACT INFECTION","AESOC":"INFECTIONS AND INFESTATIONS","AESOCCD":null,"ASEV":"MILD","ASEVN":1,"AESER":"N","AREL":"NONE","AEACN":"","AEOUT":"NOT RECOVERED/NOT RESOLVED","ASTDT":"2013-03-06","AENDT":null,"ASTDY":23,"AENDY":null,"TRTEMFL":"Y","AOCC01FL":"Y","AOCCFL":null,"TRTP":"Placebo","TRT01P":"Placebo","TRT01PN":null,"TRT01A":"Placebo","SITEGR1":900,"SAFFL":"Y"},{"STUDYID":"CDISCPILOT01","USUBJID":"01-701-1047","AESEQ":4,"AETERM":"BUNDLE BRANCH BLOCK LEFT","AEDECOD":"BUNDLE BRANCH BLOCK LEFT","AESOC":"CARDIAC DISORDERS","AESOCCD":null,"ASEV":"MILD","ASEVN":1,"AESER":"N","AREL":"NONE","AEACN":"","AEOUT":"NOT RECOVERED/NOT RESOLVED","ASTDT":"2013-03-10","AENDT":null,"ASTDY":27,"AENDY":null,"TRTEMFL":"Y","AOCC01FL":"Y","AOCCFL":null,"TRTP":"Placebo","TRT01P":"Placebo","TRT01PN":null,"TRT01A":"Placebo","SITEGR1":900,"SAFFL":"Y"},{"STUDYID":"CDISCPILOT01","USUBJID":"01-701-1097","AESEQ":1,"AETERM":"ERYTHEMA","AEDECOD":"ERYTHEMA","AESOC":"SKIN AND SUBCUTANEOUS TISSUE DISORDERS","AESOCCD":null,"ASEV":"MILD","ASEVN":1,"AESER":"N","AREL":"POSSIBLE","AEACN":"","AEOUT":"NOT RECOVERED/NOT RESOLVED","ASTDT":"2014-01-03","AENDT":null,"ASTDY":3,"AENDY":null,"TRTEMFL":"Y","AOCC01FL":"Y","AOCCFL":"Y","TRTP":"Xanomeline Low Dose","TRT01P":"Xanomeline Low Dose","TRT01PN":null,"TRT01A":"Xanomeline Low Dose","SITEGR1":900,"SAFFL":"Y"},{"STUDYID":"CDISCPILOT01","USUBJID":"01-701-1097","AESEQ":2,"AETERM":"PRURITUS GENERALISED","AEDECOD":"PRURITUS GENERALISED","AESOC":"SKIN AND SUBCUTANEOUS TISSUE DISORDERS","AESOCCD":null,"ASEV":"MODERATE","ASEVN":2,"AESER":"N","AREL":"POSSIBLE","AEACN":"","AEOUT":"RECOVERED/RESOLVED","ASTDT":"2014-02-20","AENDT":"2014-02-20","ASTDY":51,"AENDY":51,"TRTEMFL":"Y","AOCC01FL":"Y","AOCCFL":null,"TRTP":"Xanomeline Low Dose","TRT01P":"Xanomeline Low Dose","TRT01PN":null,"TRT01A":"Xanomeline Low Dose","SITEGR1":900,"SAFFL":"Y"},{"STUDYID":"CDISCPILOT01","USUBJID":"01-701-1097","AESEQ":3,"AETERM":"APPLICATION SITE VESICLES","AEDECOD":"APPLICATION SITE VESICLES","AESOC":"GENERAL DISORDERS AND ADMINISTRATION SITE CONDITIONS","AESOCCD":null,"ASEV":"MILD","ASEVN":1,"AESER":"N","AREL":"PROBABLE","AEACN":"","AEOUT":"RECOVERED/RESOLVED","ASTDT":"2014-02-20","AENDT":"2014-02-22","ASTDY":51,"AENDY":53,"TRTEMFL":"Y","AOCC01FL":"Y","AOCCFL":null,"TRTP":"Xanomeline Low Dose","TRT01P":"Xanomeline Low Dose","TRT01PN":null,"TRT01A":"Xanomeline Low Dose","SITEGR1":900,"SAFFL":"Y"},{"STUDYID":"CDISCPILOT01","USUBJID":"01-701-1097","AESEQ":4,"AETERM":"APPLICATION SITE PRURITUS","AEDECOD":"APPLICATION SITE PRURITUS","AESOC":"GENERAL DISORDERS AND ADMINISTRATION SITE CONDITIONS","AESOCCD":null,"ASEV":"MILD","ASEVN":1,"AESER":"N","AREL":"POSSIBLE","AEACN":"","AEOUT":"NOT RECOVERED/NOT RESOLVED","ASTDT":"2014-02-21","AENDT":null,"ASTDY":52,"AENDY":null,"TRTEMFL":"Y","AOCC01FL":null,"AOCCFL":null,"TRTP":"Xanomeline Low Dose","TRT01P":"Xanomeline Low Dose","TRT01PN":null,"TRT01A":"Xanomeline Low Dose","SITEGR1":900,"SAFFL":"Y"},{"STUDYID":"CDISCPILOT01","USUBJID":"01-701-1097","AESEQ":10,"AETERM":"APPLICATION SITE PRURITUS","AEDECOD":"APPLICATION SITE PRURITUS","AESOC":"GENERAL DISORDERS AND ADMINISTRATION SITE CONDITIONS","AESOCCD":null,"ASEV":"MODERATE","ASEVN":2,"AESER":"N","AREL":"POSSIBLE","AEACN":"","AEOUT":"NOT RECOVERED/NOT RESOLVED","ASTDT":"2014-02-21","AENDT":null,"ASTDY":52,"AENDY":null,"TRTEMFL":"Y","AOCC01FL":"Y","AOCCFL":null,"TRTP":"Xanomeline Low Dose","TRT01P":"Xanomeline Low Dose","TRT01PN":null,"TRT01A":"Xanomeline Low Dose","SITEGR1":900,"SAFFL":"Y"},{"STUDYID":"CDISCPILOT01","USUBJID":"01-701-1097","AESEQ":5,"AETERM":"PRURITUS GENERALISED","AEDECOD":"PRURITUS GENERALISED","AESOC":"SKIN AND SUBCUTANEOUS TISSUE DISORDERS","AESOCCD":null,"ASEV":"MODERATE","ASEVN":2,"AESER":"N","AREL":"POSSIBLE","AEACN":"","AEOUT":"RECOVERED/RESOLVED","ASTDT":"2014-03-21","AENDT":"2014-03-21","ASTDY":80,"AENDY":80,"TRTEMFL":"Y","AOCC01FL":null,"AOCCFL":null,"TRTP":"Xanomeline Low Dose","TRT01P":"Xanomeline Low Dose","TRT01PN":null,"TRT01A":"Xanomeline Low Dose","SITEGR1":900,"SAFFL":"Y"},{"STUDYID":"CDISCPILOT01","USUBJID":"01-701-1097","AESEQ":6,"AETERM":"PRURITUS GENERALISED","AEDECOD":"PRURITUS GENERALISED","AESOC":"SKIN AND SUBCUTANEOUS TISSUE DISORDERS","AESOCCD":null,"ASEV":"MODERATE","ASEVN":2,"AESER":"N","AREL":"POSSIBLE","AEACN":"","AEOUT":"RECOVERED/RESOLVED","ASTDT":"2014-03-31","AENDT":"2014-03-31","ASTDY":90,"AENDY":90,"TRTEMFL":"Y","AOCC01FL":null,"AOCCFL":null,"TRTP":"Xanomeline Low Dose","TRT01P":"Xanomeline Low Dose","TRT01PN":null,"TRT01A":"Xanomeline Low Dose","SITEGR1":900,"SAFFL":"Y"},{"STUDYID":"CDISCPILOT01","USUBJID":"01-701-1097","AESEQ":7,"AETERM":"PRURITUS GENERALISED","AEDECOD":"PRURITUS GENERALISED","AESOC":"SKIN AND SUBCUTANEOUS TISSUE DISORDERS","AESOCCD":null,"ASEV":"MODERATE","ASEVN":2,"AESER":"N","AREL":"POSSIBLE","AEACN":"","AEOUT":"RECOVERED/RESOLVED","ASTDT":"2014-04-19","AENDT":"2014-04-20","ASTDY":109,"AENDY":110,"TRTEMFL":"Y","AOCC01FL":null,"AOCCFL":null,"TRTP":"Xanomeline Low Dose","TRT01P":"Xanomeline Low Dose","TRT01PN":null,"TRT01A":"Xanomeline Low Dose","SITEGR1":900,"SAFFL":"Y"},{"STUDYID":"CDISCPILOT01","USUBJID":"01-701-1097","AESEQ":8,"AETERM":"PHARYNGOLARYNGEAL PAIN","AEDECOD":"PHARYNGOLARYNGEAL PAIN","AESOC":"RESPIRATORY, THORACIC AND MEDIASTINAL DISORDERS","AESOCCD":null,"ASEV":"MILD","ASEVN":1,"AESER":"N","AREL":"NONE","AEACN":"","AEOUT":"RECOVERED/RESOLVED","ASTDT":"2014-04-19","AENDT":"2014-04-22","ASTDY":109,"AENDY":112,"TRTEMFL":"Y","AOCC01FL":"Y","AOCCFL":null,"TRTP":"Xanomeline Low Dose","TRT01P":"Xanomeline Low Dose","TRT01PN":null,"TRT01A":"Xanomeline Low Dose","SITEGR1":900,"SAFFL":"Y"},{"STUDYID":"CDISCPILOT01","USUBJID":"01-701-1097","AESEQ":9,"AETERM":"NASAL CONGESTION","AEDECOD":"NASAL CONGESTION","AESOC":"RESPIRATORY, THORACIC AND MEDIASTINAL DISORDERS","AESOCCD":null,"ASEV":"MILD","ASEVN":1,"AESER":"N","AREL":"NONE","AEACN":"","AEOUT":"RECOVERED/RESOLVED","ASTDT":"2014-04-19","AENDT":"2014-04-22","ASTDY":109,"AENDY":112,"TRTEMFL":"Y","AOCC01FL":"Y","AOCCFL":null,"TRTP":"Xanomeline Low Dose","TRT01P":"Xanomeline Low Dose","TRT01PN":null,"TRT01A":"Xanomeline Low Dose","SITEGR1":900,"SAFFL":"Y"},{"STUDYID":"CDISCPILOT01","USUBJID":"01-701-1111","AESEQ":3,"AETERM":"LOCALISED INFECTION","AEDECOD":"LOCALISED INFECTION","AESOC":"INFECTIONS AND INFESTATIONS","AESOCCD":null,"ASEV":"MODERATE","ASEVN":2,"AESER":"N","AREL":"NONE","AEACN":"","AEOUT":"NOT RECOVERED/NOT RESOLVED","ASTDT":"2012-07-08","AENDT":null,"ASTDY":-61,"AENDY":null,"TRTEMFL":"N","AOCC01FL":null,"AOCCFL":null,"TRTP":"Xanomeline Low Dose","TRT01P":"Xanomeline Low Dose","TRT01PN":null,"TRT01A":"Xanomeline Low Dose","SITEGR1":900,"SAFFL":"Y"},{"STUDYID":"CDISCPILOT01","USUBJID":"01-701-1111","AESEQ":1,"AETERM":"ERYTHEMA","AEDECOD":"ERYTHEMA","AESOC":"SKIN AND SUBCUTANEOUS TISSUE DISORDERS","AESOCCD":null,"ASEV":"MILD","ASEVN":1,"AESER":"N","AREL":"NONE","AEACN":"","AEOUT":"NOT RECOVERED/NOT RESOLVED","ASTDT":"2012-09-02","AENDT":"2012-09-07","ASTDY":-5,"AENDY":1,"TRTEMFL":"N","AOCC01FL":null,"AOCCFL":null,"TRTP":"Xanomeline Low Dose","TRT01P":"Xanomeline Low Dose","TRT01PN":null,"TRT01A":"Xanomeline Low Dose","SITEGR1":900,"SAFFL":"Y"},{"STUDYID":"CDISCPILOT01","USUBJID":"01-701-1111","AESEQ":2,"AETERM":"PRURITUS","AEDECOD":"PRURITUS","AESOC":"SKIN AND SUBCUTANEOUS TISSUE DISORDERS","AESOCCD":null,"ASEV":"MILD","ASEVN":1,"AESER":"N","AREL":"NONE","AEACN":"","AEOUT":"NOT RECOVERED/NOT RESOLVED","ASTDT":"2012-09-02","AENDT":"2012-09-07","ASTDY":-5,"AENDY":1,"TRTEMFL":"N","AOCC01FL":null,"AOCCFL":null,"TRTP":"Xanomeline Low Dose","TRT01P":"Xanomeline Low Dose","TRT01PN":null,"TRT01A":"Xanomeline Low Dose","SITEGR1":900,"SAFFL":"Y"},{"STUDYID":"CDISCPILOT01","USUBJID":"01-701-1111","AESEQ":4,"AETERM":"ERYTHEMA","AEDECOD":"ERYTHEMA","AESOC":"SKIN AND SUBCUTANEOUS TISSUE DISORDERS","AESOCCD":null,"ASEV":"MILD","ASEVN":1,"AESER":"N","AREL":"NONE","AEACN":"","AEOUT":"RECOVERED/RESOLVED","ASTDT":"2012-09-02","AENDT":"2012-09-07","ASTDY":-5,"AENDY":1,"TRTEMFL":"N","AOCC01FL":null,"AOCCFL":null,"TRTP":"Xanomeline Low Dose","TRT01P":"Xanomeline Low Dose","TRT01PN":null,"TRT01A":"Xanomeline Low Dose","SITEGR1":900,"SAFFL":"Y"},{"STUDYID":"CDISCPILOT01","USUBJID":"01-701-1111","AESEQ":5,"AETERM":"PRURITUS","AEDECOD":"PRURITUS","AESOC":"SKIN AND SUBCUTANEOUS TISSUE DISORDERS","AESOCCD":null,"ASEV":"MILD","ASEVN":1,"AESER":"N","AREL":"NONE","AEACN":"","AEOUT":"RECOVERED/RESOLVED","ASTDT":"2012-09-02","AENDT":"2012-09-07","ASTDY":-5,"AENDY":1,"TRTEMFL":"N","AOCC01FL":null,"AOCCFL":null,"TRTP":"Xanomeline Low Dose","TRT01P":"Xanomeline Low Dose","TRT01PN":null,"TRT01A":"Xanomeline Low Dose","SITEGR1":900,"SAFFL":"Y"},{"STUDYID":"CDISCPILOT01","USUBJID":"01-701-1111","AESEQ":6,"AETERM":"MICTURITION URGENCY","AEDECOD":"MICTURITION URGENCY","AESOC":"RENAL AND URINARY DISORDERS","AESOCCD":null,"ASEV":"MILD","ASEVN":1,"AESER":"N","AREL":"NONE","AEACN":"","AEOUT":"NOT RECOVERED/NOT RESOLVED","ASTDT":"2012-09-07","AENDT":null,"ASTDY":1,"AENDY":null,"TRTEMFL":"Y","AOCC01FL":"Y","AOCCFL":null,"TRTP":"Xanomeline Low Dose","TRT01P":"Xanomeline Low Dose","TRT01PN":null,"TRT01A":"Xanomeline Low Dose","SITEGR1":900,"SAFFL":"Y"},{"STUDYID":"CDISCPILOT01","USUBJID":"01-701-1111","AESEQ":7,"AETERM":"ARTHRALGIA","AEDECOD":"ARTHRALGIA","AESOC":"MUSCULOSKELETAL AND CONNECTIVE TISSUE DISORDERS","AESOCCD":null,"ASEV":"MODERATE","ASEVN":2,"AESER":"N","AREL":"NONE","AEACN":"","AEOUT":"NOT RECOVERED/NOT RESOLVED","ASTDT":"2012-09-13","AENDT":null,"ASTDY":7,"AENDY":null,"TRTEMFL":"Y","AOCC01FL":"Y","AOCCFL":null,"TRTP":"Xanomeline Low Dose","TRT01P":"Xanomeline Low Dose","TRT01PN":null,"TRT01A":"Xanomeline Low Dose","SITEGR1":900,"SAFFL":"Y"},{"STUDYID":"CDISCPILOT01","USUBJID":"01-701-1111","AESEQ":8,"AETERM":"CELLULITIS","AEDECOD":"CELLULITIS","AESOC":"INFECTIONS AND INFESTATIONS","AESOCCD":null,"ASEV":"MODERATE","ASEVN":2,"AESER":"N","AREL":"NONE","AEACN":"","AEOUT":"NOT RECOVERED/NOT RESOLVED","ASTDT":"2012-09-13","AENDT":null,"ASTDY":7,"AENDY":null,"TRTEMFL":"Y","AOCC01FL":"Y","AOCCFL":null,"TRTP":"Xanomeline Low Dose","TRT01P":"Xanomeline Low Dose","TRT01PN":null,"TRT01A":"Xanomeline Low Dose","SITEGR1":900,"SAFFL":"Y"},{"STUDYID":"CDISCPILOT01","USUBJID":"01-701-1115","AESEQ":1,"AETERM":"APPLICATION SITE ERYTHEMA","AEDECOD":"APPLICATION SITE ERYTHEMA","AESOC":"GENERAL DISORDERS AND ADMINISTRATION SITE CONDITIONS","AESOCCD":null,"ASEV":"MILD","ASEVN":1,"AESER":"N","AREL":"PROBABLE","AEACN":"","AEOUT":"NOT RECOVERED/NOT RESOLVED","ASTDT":"2012-12-02","AENDT":null,"ASTDY":3,"AENDY":null,"TRTEMFL":"Y","AOCC01FL":null,"AOCCFL":"Y","TRTP":"Xanomeline Low Dose","TRT01P":"Xanomeline Low Dose","TRT01PN":null,"TRT01A":"Xanomeline Low Dose","SITEGR1":900,"SAFFL":"Y"},{"STUDYID":"CDISCPILOT01","USUBJID":"01-701-1115","AESEQ":2,"AETERM":"APPLICATION SITE PRURITUS","AEDECOD":"APPLICATION SITE PRURITUS","AESOC":"GENERAL DISORDERS AND ADMINISTRATION SITE CONDITIONS","AESOCCD":null,"ASEV":"MILD","ASEVN":1,"AESER":"N","AREL":"PROBABLE","AEACN":"","AEOUT":"NOT RECOVERED/NOT RESOLVED","ASTDT":"2012-12-02","AENDT":null,"ASTDY":3,"AENDY":null,"TRTEMFL":"Y","AOCC01FL":null,"AOCCFL":null,"TRTP":"Xanomeline Low Dose","TRT01P":"Xanomeline Low Dose","TRT01PN":null,"TRT01A":"Xanomeline Low Dose","SITEGR1":900,"SAFFL":"Y"},{"STUDYID":"CDISCPILOT01","USUBJID":"01-701-1115","AESEQ":5,"AETERM":"APPLICATION SITE ERYTHEMA","AEDECOD":"APPLICATION SITE ERYTHEMA","AESOC":"GENERAL DISORDERS AND ADMINISTRATION SITE CONDITIONS","AESOCCD":null,"ASEV":"MODERATE","ASEVN":2,"AESER":"N","AREL":"PROBABLE","AEACN":"","AEOUT":"NOT RECOVERED/NOT RESOLVED","ASTDT":"2012-12-02","AENDT":null,"ASTDY":3,"AENDY":null,"TRTEMFL":"Y","AOCC01FL":"Y","AOCCFL":null,"TRTP":"Xanomeline Low Dose","TRT01P":"Xanomeline Low Dose","TRT01PN":null,"TRT01A":"Xanomeline Low Dose","SITEGR1":900,"SAFFL":"Y"},{"STUDYID":"CDISCPILOT01","USUBJID":"01-701-1115","AESEQ":6,"AETERM":"APPLICATION SITE PRURITUS","AEDECOD":"APPLICATION SITE PRURITUS","AESOC":"GENERAL DISORDERS AND ADMINISTRATION SITE CONDITIONS","AESOCCD":null,"ASEV":"MODERATE","ASEVN":2,"AESER":"N","AREL":"PROBABLE","AEACN":"","AEOUT":"NOT RECOVERED/NOT RESOLVED","ASTDT":"2012-12-02","AENDT":null,"ASTDY":3,"AENDY":null,"TRTEMFL":"Y","AOCC01FL":"Y","AOCCFL":null,"TRTP":"Xanomeline Low Dose","TRT01P":"Xanomeline Low Dose","TRT01PN":null,"TRT01A":"Xanomeline Low Dose","SITEGR1":900,"SAFFL":"Y"},{"STUDYID":"CDISCPILOT01","USUBJID":"01-701-1115","AESEQ":3,"AETERM":"APPLICATION SITE IRRITATION","AEDECOD":"APPLICATION SITE IRRITATION","AESOC":"GENERAL DISORDERS AND ADMINISTRATION SITE CONDITIONS","AESOCCD":null,"ASEV":"MILD","ASEVN":1,"AESER":"N","AREL":"POSSIBLE","AEACN":"","AEOUT":"NOT RECOVERED/NOT RESOLVED","ASTDT":"2012-12-26","AENDT":"2012-12-26","ASTDY":27,"AENDY":27,"TRTEMFL":"Y","AOCC01FL":null,"AOCCFL":null,"TRTP":"Xanomeline Low Dose","TRT01P":"Xanomeline Low Dose","TRT01PN":null,"TRT01A":"Xanomeline Low Dose","SITEGR1":900,"SAFFL":"Y"},{"STUDYID":"CDISCPILOT01","USUBJID":"01-701-1115","AESEQ":4,"AETERM":"APPLICATION SITE IRRITATION","AEDECOD":"APPLICATION SITE IRRITATION","AESOC":"GENERAL DISORDERS AND ADMINISTRATION SITE CONDITIONS","AESOCCD":null,"ASEV":"MILD","ASEVN":1,"AESER":"N","AREL":"POSSIBLE","AEACN":"","AEOUT":"RECOVERED/RESOLVED","ASTDT":"2012-12-26","AENDT":"2012-12-26","ASTDY":27,"AENDY":27,"TRTEMFL":"Y","AOCC01FL":null,"AOCCFL":null,"TRTP":"Xanomeline Low Dose","TRT01P":"Xanomeline Low Dose","TRT01PN":null,"TRT01A":"Xanomeline Low Dose","SITEGR1":900,"SAFFL":"Y"},{"STUDYID":"CDISCPILOT01","USUBJID":"01-701-1115","AESEQ":7,"AETERM":"FATIGUE","AEDECOD":"FATIGUE","AESOC":"GENERAL DISORDERS AND ADMINISTRATION SITE CONDITIONS","AESOCCD":null,"ASEV":"MODERATE","ASEVN":2,"AESER":"N","AREL":"REMOTE","AEACN":"","AEOUT":"NOT RECOVERED/NOT RESOLVED","ASTDT":"2013-01-14","AENDT":null,"ASTDY":46,"AENDY":null,"TRTEMFL":"Y","AOCC01FL":"Y","AOCCFL":null,"TRTP":"Xanomeline Low Dose","TRT01P":"Xanomeline Low Dose","TRT01PN":null,"TRT01A":"Xanomeline Low Dose","SITEGR1":900,"SAFFL":"Y"},{"STUDYID":"CDISCPILOT01","USUBJID":"01-701-1115","AESEQ":8,"AETERM":"APPLICATION SITE IRRITATION","AEDECOD":"APPLICATION SITE IRRITATION","AESOC":"GENERAL DISORDERS AND ADMINISTRATION SITE CONDITIONS","AESOCCD":null,"ASEV":"MODERATE","ASEVN":2,"AESER":"N","AREL":"PROBABLE","AEACN":"","AEOUT":"NOT RECOVERED/NOT RESOLVED","ASTDT":"2013-01-19","AENDT":null,"ASTDY":51,"AENDY":null,"TRTEMFL":"Y","AOCC01FL":"Y","AOCCFL":null,"TRTP":"Xanomeline Low Dose","TRT01P":"Xanomeline Low Dose","TRT01PN":null,"TRT01A":"Xanomeline Low Dose","SITEGR1":900,"SAFFL":"Y"},{"STUDYID":"CDISCPILOT01","USUBJID":"01-701-1115","AESEQ":9,"AETERM":"APPLICATION SITE DERMATITIS","AEDECOD":"APPLICATION SITE DERMATITIS","AESOC":"GENERAL DISORDERS AND ADMINISTRATION SITE CONDITIONS","AESOCCD":null,"ASEV":"MODERATE","ASEVN":2,"AESER":"N","AREL":"PROBABLE","AEACN":"","AEOUT":"NOT RECOVERED/NOT RESOLVED","ASTDT":"2013-01-19","AENDT":null,"ASTDY":51,"AENDY":null,"TRTEMFL":"Y","AOCC01FL":"Y","AOCCFL":null,"TRTP":"Xanomeline Low Dose","TRT01P":"Xanomeline Low Dose","TRT01PN":null,"TRT01A":"Xanomeline Low Dose","SITEGR1":900,"SAFFL":"Y"},{"STUDYID":"CDISCPILOT01","USUBJID":"01-701-1118","AESEQ":1,"AETERM":"COUGH","AEDECOD":"COUGH","AESOC":"RESPIRATORY, THORACIC AND MEDIASTINAL DISORDERS","AESOCCD":null,"ASEV":"MILD","ASEVN":1,"AESER":"N","AREL":"NONE","AEACN":"","AEOUT":"NOT RECOVERED/NOT RESOLVED","ASTDT":null,"AENDT":null,"ASTDY":null,"AENDY":null,"TRTEMFL":"N","AOCC01FL":null,"AOCCFL":null,"TRTP":"Placebo","TRT01P":"Placebo","TRT01PN":null,"TRT01A":"Placebo","SITEGR1":900,"SAFFL":"Y"},{"STUDYID":"CDISCPILOT01","USUBJID":"01-701-1130","AESEQ":1,"AETERM":"URINARY TRACT INFECTION","AEDECOD":"URINARY TRACT INFECTION","AESOC":"INFECTIONS AND INFESTATIONS","AESOCCD":null,"ASEV":"MILD","ASEVN":1,"AESER":"N","AREL":"NONE","AEACN":"","AEOUT":"NOT RECOVERED/NOT RESOLVED","ASTDT":"2014-03-09","AENDT":"2014-03-16","ASTDY":23,"AENDY":30,"TRTEMFL":"Y","AOCC01FL":"Y","AOCCFL":"Y","TRTP":"Placebo","TRT01P":"Placebo","TRT01PN":null,"TRT01A":"Placebo","SITEGR1":900,"SAFFL":"Y"},{"STUDYID":"CDISCPILOT01","USUBJID":"01-701-1130","AESEQ":2,"AETERM":"PYREXIA","AEDECOD":"PYREXIA","AESOC":"GENERAL DISORDERS AND ADMINISTRATION SITE CONDITIONS","AESOCCD":null,"ASEV":"MILD","ASEVN":1,"AESER":"N","AREL":"NONE","AEACN":"","AEOUT":"RECOVERED/RESOLVED","ASTDT":"2014-03-09","AENDT":"2014-03-09","ASTDY":23,"AENDY":23,"TRTEMFL":"Y","AOCC01FL":"Y","AOCCFL":null,"TRTP":"Placebo","TRT01P":"Placebo","TRT01PN":null,"TRT01A":"Placebo","SITEGR1":900,"SAFFL":"Y"},{"STUDYID":"CDISCPILOT01","USUBJID":"01-701-1130","AESEQ":3,"AETERM":"URINARY TRACT INFECTION","AEDECOD":"URINARY TRACT INFECTION","AESOC":"INFECTIONS AND INFESTATIONS","AESOCCD":null,"ASEV":"MILD","ASEVN":1,"AESER":"N","AREL":"NONE","AEACN":"","AEOUT":"RECOVERED/RESOLVED","ASTDT":"2014-03-09","AENDT":"2014-03-16","ASTDY":23,"AENDY":30,"TRTEMFL":"Y","AOCC01FL":null,"AOCCFL":null,"TRTP":"Placebo","TRT01P":"Placebo","TRT01PN":null,"TRT01A":"Placebo","SITEGR1":900,"SAFFL":"Y"},{"STUDYID":"CDISCPILOT01","USUBJID":"01-701-1130","AESEQ":4,"AETERM":"EYE SWELLING","AEDECOD":"EYE SWELLING","AESOC":"EYE DISORDERS","AESOCCD":null,"ASEV":"MILD","ASEVN":1,"AESER":"N","AREL":"NONE","AEACN":"","AEOUT":"RECOVERED/RESOLVED","ASTDT":"2014-05-09","AENDT":"2014-05-09","ASTDY":84,"AENDY":84,"TRTEMFL":"Y","AOCC01FL":"Y","AOCCFL":null,"TRTP":"Placebo","TRT01P":"Placebo","TRT01PN":null,"TRT01A":"Placebo","SITEGR1":900,"SAFFL":"Y"},{"STUDYID":"CDISCPILOT01","USUBJID":"01-701-1130","AESEQ":5,"AETERM":"EYE ALLERGY","AEDECOD":"EYE ALLERGY","AESOC":"EYE DISORDERS","AESOCCD":null,"ASEV":"MILD","ASEVN":1,"AESER":"N","AREL":"NONE","AEACN":"","AEOUT":"RECOVERED/RESOLVED","ASTDT":"2014-05-09","AENDT":"2014-05-09","ASTDY":84,"AENDY":84,"TRTEMFL":"Y","AOCC01FL":"Y","AOCCFL":null,"TRTP":"Placebo","TRT01P":"Placebo","TRT01PN":null,"TRT01A":"Placebo","SITEGR1":900,"SAFFL":"Y"},{"STUDYID":"CDISCPILOT01","USUBJID":"01-701-1130","AESEQ":6,"AETERM":"EYE PRURITUS","AEDECOD":"EYE PRURITUS","AESOC":"EYE DISORDERS","AESOCCD":null,"ASEV":"MILD","ASEVN":1,"AESER":"N","AREL":"REMOTE","AEACN":"","AEOUT":"NOT RECOVERED/NOT RESOLVED","ASTDT":"2014-05-22","AENDT":null,"ASTDY":97,"AENDY":null,"TRTEMFL":"Y","AOCC01FL":"Y","AOCCFL":null,"TRTP":"Placebo","TRT01P":"Placebo","TRT01PN":null,"TRT01A":"Placebo","SITEGR1":900,"SAFFL":"Y"},{"STUDYID":"CDISCPILOT01","USUBJID":"01-701-1130","AESEQ":7,"AETERM":"PRURITUS","AEDECOD":"PRURITUS","AESOC":"SKIN AND SUBCUTANEOUS TISSUE DISORDERS","AESOCCD":null,"ASEV":"MILD","ASEVN":1,"AESER":"N","AREL":"REMOTE","AEACN":"","AEOUT":"NOT RECOVERED/NOT RESOLVED","ASTDT":"2014-05-22","AENDT":null,"ASTDY":97,"AENDY":null,"TRTEMFL":"Y","AOCC01FL":"Y","AOCCFL":null,"TRTP":"Placebo","TRT01P":"Placebo","TRT01PN":null,"TRT01A":"Placebo","SITEGR1":900,"SAFFL":"Y"},{"STUDYID":"CDISCPILOT01","USUBJID":"01-701-1130","AESEQ":8,"AETERM":"NASAL CONGESTION","AEDECOD":"NASAL CONGESTION","AESOC":"RESPIRATORY, THORACIC AND MEDIASTINAL DISORDERS","AESOCCD":null,"ASEV":"MILD","ASEVN":1,"AESER":"N","AREL":"REMOTE","AEACN":"","AEOUT":"NOT RECOVERED/NOT RESOLVED","ASTDT":"2014-05-22","AENDT":null,"ASTDY":97,"AENDY":null,"TRTEMFL":"Y","AOCC01FL":"Y","AOCCFL":null,"TRTP":"Placebo","TRT01P":"Placebo","TRT01PN":null,"TRT01A":"Placebo","SITEGR1":900,"SAFFL":"Y"},{"STUDYID":"CDISCPILOT01","USUBJID":"01-701-1133","AESEQ":1,"AETERM":"APPLICATION SITE ERYTHEMA","AEDECOD":"APPLICATION SITE ERYTHEMA","AESOC":"GENERAL DISORDERS AND ADMINISTRATION SITE CONDITIONS","AESOCCD":null,"ASEV":"MILD","ASEVN":1,"AESER":"N","AREL":"PROBABLE","AEACN":"","AEOUT":"NOT RECOVERED/NOT RESOLVED","ASTDT":"2012-12-27","AENDT":null,"ASTDY":61,"AENDY":null,"TRTEMFL":"Y","AOCC01FL":null,"AOCCFL":"Y","TRTP":"Xanomeline High Dose","TRT01P":"Xanomeline High Dose","TRT01PN":null,"TRT01A":"Xanomeline High Dose","SITEGR1":900,"SAFFL":"Y"},{"STUDYID":"CDISCPILOT01","USUBJID":"01-701-1133","AESEQ":2,"AETERM":"APPLICATION SITE PRURITUS","AEDECOD":"APPLICATION SITE PRURITUS","AESOC":"GENERAL DISORDERS AND ADMINISTRATION SITE CONDITIONS","AESOCCD":null,"ASEV":"MILD","ASEVN":1,"AESER":"N","AREL":"PROBABLE","AEACN":"","AEOUT":"NOT RECOVERED/NOT RESOLVED","ASTDT":"2012-12-27","AENDT":null,"ASTDY":61,"AENDY":null,"TRTEMFL":"Y","AOCC01FL":null,"AOCCFL":null,"TRTP":"Xanomeline High Dose","TRT01P":"Xanomeline High Dose","TRT01PN":null,"TRT01A":"Xanomeline High Dose","SITEGR1":900,"SAFFL":"Y"},{"STUDYID":"CDISCPILOT01","USUBJID":"01-701-1133","AESEQ":3,"AETERM":"APPLICATION SITE ERYTHEMA","AEDECOD":"APPLICATION SITE ERYTHEMA","AESOC":"GENERAL DISORDERS AND ADMINISTRATION SITE CONDITIONS","AESOCCD":null,"ASEV":"MODERATE","ASEVN":2,"AESER":"N","AREL":"PROBABLE","AEACN":"","AEOUT":"NOT RECOVERED/NOT RESOLVED","ASTDT":"2012-12-27","AENDT":null,"ASTDY":61,"AENDY":null,"TRTEMFL":"Y","AOCC01FL":"Y","AOCCFL":null,"TRTP":"Xanomeline High Dose","TRT01P":"Xanomeline High Dose","TRT01PN":null,"TRT01A":"Xanomeline High Dose","SITEGR1":900,"SAFFL":"Y"},{"STUDYID":"CDISCPILOT01","USUBJID":"01-701-1133","AESEQ":4,"AETERM":"APPLICATION SITE PRURITUS","AEDECOD":"APPLICATION SITE PRURITUS","AESOC":"GENERAL DISORDERS AND ADMINISTRATION SITE CONDITIONS","AESOCCD":null,"ASEV":"MODERATE","ASEVN":2,"AESER":"N","AREL":"PROBABLE","AEACN":"","AEOUT":"NOT RECOVERED/NOT RESOLVED","ASTDT":"2012-12-27","AENDT":null,"ASTDY":61,"AENDY":null,"TRTEMFL":"Y","AOCC01FL":"Y","AOCCFL":null,"TRTP":"Xanomeline High Dose","TRT01P":"Xanomeline High Dose","TRT01PN":null,"TRT01A":"Xanomeline High Dose","SITEGR1":900,"SAFFL":"Y"},{"STUDYID":"CDISCPILOT01","USUBJID":"01-701-1146","AESEQ":1,"AETERM":"RASH","AEDECOD":"RASH","AESOC":"SKIN AND SUBCUTANEOUS TISSUE DISORDERS","AESOCCD":null,"ASEV":"MILD","ASEVN":1,"AESER":"N","AREL":"NONE","AEACN":"","AEOUT":"NOT RECOVERED/NOT RESOLVED","ASTDT":"2013-05-16","AENDT":"2013-06-02","ASTDY":-4,"AENDY":14,"TRTEMFL":"N","AOCC01FL":null,"AOCCFL":null,"TRTP":"Xanomeline High Dose","TRT01P":"Xanomeline High Dose","TRT01PN":null,"TRT01A":"Xanomeline High Dose","SITEGR1":900,"SAFFL":"Y"},{"STUDYID":"CDISCPILOT01","USUBJID":"01-701-1146","AESEQ":2,"AETERM":"RASH","AEDECOD":"RASH","AESOC":"SKIN AND SUBCUTANEOUS TISSUE DISORDERS","AESOCCD":null,"ASEV":"MILD","ASEVN":1,"AESER":"N","AREL":"NONE","AEACN":"","AEOUT":"RECOVERED/RESOLVED","ASTDT":"2013-05-16","AENDT":"2013-06-02","ASTDY":-4,"AENDY":14,"TRTEMFL":"N","AOCC01FL":null,"AOCCFL":null,"TRTP":"Xanomeline High Dose","TRT01P":"Xanomeline High Dose","TRT01PN":null,"TRT01A":"Xanomeline High Dose","SITEGR1":900,"SAFFL":"Y"},{"STUDYID":"CDISCPILOT01","USUBJID":"01-701-1146","AESEQ":3,"AETERM":"APPLICATION SITE IRRITATION","AEDECOD":"APPLICATION SITE IRRITATION","AESOC":"GENERAL DISORDERS AND ADMINISTRATION SITE CONDITIONS","AESOCCD":null,"ASEV":"MILD","ASEVN":1,"AESER":"N","AREL":"PROBABLE","AEACN":"","AEOUT":"RECOVERED/RESOLVED","ASTDT":"2013-06-01","AENDT":"2013-06-02","ASTDY":13,"AENDY":14,"TRTEMFL":"Y","AOCC01FL":null,"AOCCFL":null,"TRTP":"Xanomeline High Dose","TRT01P":"Xanomeline High Dose","TRT01PN":null,"TRT01A":"Xanomeline High Dose","SITEGR1":900,"SAFFL":"Y"},{"STUDYID":"CDISCPILOT01","USUBJID":"01-701-1146","AESEQ":4,"AETERM":"FATIGUE","AEDECOD":"FATIGUE","AESOC":"GENERAL DISORDERS AND ADMINISTRATION SITE CONDITIONS","AESOCCD":null,"ASEV":"MILD","ASEVN":1,"AESER":"N","AREL":"POSSIBLE","AEACN":"","AEOUT":"NOT RECOVERED/NOT RESOLVED","ASTDT":"2013-06-03","AENDT":null,"ASTDY":15,"AENDY":null,"TRTEMFL":"Y","AOCC01FL":"Y","AOCCFL":null,"TRTP":"Xanomeline High Dose","TRT01P":"Xanomeline High Dose","TRT01PN":null,"TRT01A":"Xanomeline High Dose","SITEGR1":900,"SAFFL":"Y"},{"STUDYID":"CDISCPILOT01","USUBJID":"01-701-1146","AESEQ":5,"AETERM":"APPLICATION SITE ERYTHEMA","AEDECOD":"APPLICATION SITE ERYTHEMA","AESOC":"GENERAL DISORDERS AND ADMINISTRATION SITE CONDITIONS","AESOCCD":null,"ASEV":"MILD","ASEVN":1,"AESER":"N","AREL":"PROBABLE","AEACN":"","AEOUT":"NOT RECOVERED/NOT RESOLVED","ASTDT":"2013-06-10","AENDT":null,"ASTDY":22,"AENDY":null,"TRTEMFL":"Y","AOCC01FL":null,"AOCCFL":null,"TRTP":"Xanomeline High Dose","TRT01P":"Xanomeline High Dose","TRT01PN":null,"TRT01A":"Xanomeline High Dose","SITEGR1":900,"SAFFL":"Y"},{"STUDYID":"CDISCPILOT01","USUBJID":"01-701-1146","AESEQ":6,"AETERM":"APPLICATION SITE PRURITUS","AEDECOD":"APPLICATION SITE PRURITUS","AESOC":"GENERAL DISORDERS AND ADMINISTRATION SITE CONDITIONS","AESOCCD":null,"ASEV":"MILD","ASEVN":1,"AESER":"N","AREL":"PROBABLE","AEACN":"","AEOUT":"NOT RECOVERED/NOT RESOLVED","ASTDT":"2013-06-10","AENDT":null,"ASTDY":22,"AENDY":null,"TRTEMFL":"Y","AOCC01FL":null,"AOCCFL":null,"TRTP":"Xanomeline High Dose","TRT01P":"Xanomeline High Dose","TRT01PN":null,"TRT01A":"Xanomeline High Dose","SITEGR1":900,"SAFFL":"Y"},{"STUDYID":"CDISCPILOT01","USUBJID":"01-701-1146","AESEQ":7,"AETERM":"APPLICATION SITE ERYTHEMA","AEDECOD":"APPLICATION SITE ERYTHEMA","AESOC":"GENERAL DISORDERS AND ADMINISTRATION SITE CONDITIONS","AESOCCD":null,"ASEV":"MODERATE","ASEVN":2,"AESER":"N","AREL":"PROBABLE","AEACN":"","AEOUT":"NOT RECOVERED/NOT RESOLVED","ASTDT":"2013-06-10","AENDT":null,"ASTDY":22,"AENDY":null,"TRTEMFL":"Y","AOCC01FL":"Y","AOCCFL":null,"TRTP":"Xanomeline High Dose","TRT01P":"Xanomeline High Dose","TRT01PN":null,"TRT01A":"Xanomeline High Dose","SITEGR1":900,"SAFFL":"Y"},{"STUDYID":"CDISCPILOT01","USUBJID":"01-701-1146","AESEQ":8,"AETERM":"APPLICATION SITE PRURITUS","AEDECOD":"APPLICATION SITE PRURITUS","AESOC":"GENERAL DISORDERS AND ADMINISTRATION SITE CONDITIONS","AESOCCD":null,"ASEV":"MODERATE","ASEVN":2,"AESER":"N","AREL":"PROBABLE","AEACN":"","AEOUT":"NOT RECOVERED/NOT RESOLVED","ASTDT":"2013-06-10","AENDT":null,"ASTDY":22,"AENDY":null,"TRTEMFL":"Y","AOCC01FL":"Y","AOCCFL":null,"TRTP":"Xanomeline High Dose","TRT01P":"Xanomeline High Dose","TRT01PN":null,"TRT01A":"Xanomeline High Dose","SITEGR1":900,"SAFFL":"Y"},{"STUDYID":"CDISCPILOT01","USUBJID":"01-701-1146","AESEQ":9,"AETERM":"APPLICATION SITE PAIN","AEDECOD":"APPLICATION SITE PAIN","AESOC":"GENERAL DISORDERS AND ADMINISTRATION SITE CONDITIONS","AESOCCD":null,"ASEV":"MODERATE","ASEVN":2,"AESER":"N","AREL":"PROBABLE","AEACN":"","AEOUT":"NOT RECOVERED/NOT RESOLVED","ASTDT":"2013-06-22","AENDT":null,"ASTDY":34,"AENDY":null,"TRTEMFL":"Y","AOCC01FL":"Y","AOCCFL":null,"TRTP":"Xanomeline High Dose","TRT01P":"Xanomeline High Dose","TRT01PN":null,"TRT01A":"Xanomeline High Dose","SITEGR1":900,"SAFFL":"Y"},{"STUDYID":"CDISCPILOT01","USUBJID":"01-701-1146","AESEQ":10,"AETERM":"APPLICATION SITE VESICLES","AEDECOD":"APPLICATION SITE VESICLES","AESOC":"GENERAL DISORDERS AND ADMINISTRATION SITE CONDITIONS","AESOCCD":null,"ASEV":"MODERATE","ASEVN":2,"AESER":"N","AREL":"PROBABLE","AEACN":"","AEOUT":"NOT RECOVERED/NOT RESOLVED","ASTDT":"2013-06-26","AENDT":null,"ASTDY":38,"AENDY":null,"TRTEMFL":"Y","AOCC01FL":"Y","AOCCFL":null,"TRTP":"Xanomeline High Dose","TRT01P":"Xanomeline High Dose","TRT01PN":null,"TRT01A":"Xanomeline High Dose","SITEGR1":900,"SAFFL":"Y"},{"STUDYID":"CDISCPILOT01","USUBJID":"01-701-1146","AESEQ":11,"AETERM":"APPLICATION SITE IRRITATION","AEDECOD":"APPLICATION SITE IRRITATION","AESOC":"GENERAL DISORDERS AND ADMINISTRATION SITE CONDITIONS","AESOCCD":null,"ASEV":"MODERATE","ASEVN":2,"AESER":"N","AREL":"PROBABLE","AEACN":"","AEOUT":"NOT RECOVERED/NOT RESOLVED","ASTDT":"2013-06-26","AENDT":null,"ASTDY":38,"AENDY":null,"TRTEMFL":"Y","AOCC01FL":"Y","AOCCFL":null,"TRTP":"Xanomeline High Dose","TRT01P":"Xanomeline High Dose","TRT01PN":null,"TRT01A":"Xanomeline High Dose","SITEGR1":900,"SAFFL":"Y"},{"STUDYID":"CDISCPILOT01","USUBJID":"01-701-1148","AESEQ":9,"AETERM":"DEPRESSED MOOD","AEDECOD":"DEPRESSED MOOD","AESOC":"PSYCHIATRIC DISORDERS","AESOCCD":null,"ASEV":"MODERATE","ASEVN":2,"AESER":"N","AREL":"NONE","AEACN":"","AEOUT":"NOT RECOVERED/NOT RESOLVED","ASTDT":"2013-07-29","AENDT":null,"ASTDY":-25,"AENDY":null,"TRTEMFL":"N","AOCC01FL":null,"AOCCFL":null,"TRTP":"Xanomeline High Dose","TRT01P":"Xanomeline High Dose","TRT01PN":null,"TRT01A":"Xanomeline High Dose","SITEGR1":900,"SAFFL":"Y"},{"STUDYID":"CDISCPILOT01","USUBJID":"01-701-1148","AESEQ":1,"AETERM":"APPLICATION SITE ERYTHEMA","AEDECOD":"APPLICATION SITE ERYTHEMA","AESOC":"GENERAL DISORDERS AND ADMINISTRATION SITE CONDITIONS","AESOCCD":null,"ASEV":"MILD","ASEVN":1,"AESER":"N","AREL":"PROBABLE","AEACN":"","AEOUT":"NOT RECOVERED/NOT RESOLVED","ASTDT":"2013-08-25","AENDT":null,"ASTDY":3,"AENDY":null,"TRTEMFL":"Y","AOCC01FL":"Y","AOCCFL":null,"TRTP":"Xanomeline High Dose","TRT01P":"Xanomeline High Dose","TRT01PN":null,"TRT01A":"Xanomeline High Dose","SITEGR1":900,"SAFFL":"Y"},{"STUDYID":"CDISCPILOT01","USUBJID":"01-701-1148","AESEQ":2,"AETERM":"APPLICATION SITE PRURITUS","AEDECOD":"APPLICATION SITE PRURITUS","AESOC":"GENERAL DISORDERS AND ADMINISTRATION SITE CONDITIONS","AESOCCD":null,"ASEV":"MILD","ASEVN":1,"AESER":"N","AREL":"PROBABLE","AEACN":"","AEOUT":"NOT RECOVERED/NOT RESOLVED","ASTDT":"2013-08-25","AENDT":null,"ASTDY":3,"AENDY":null,"TRTEMFL":"Y","AOCC01FL":"Y","AOCCFL":null,"TRTP":"Xanomeline High Dose","TRT01P":"Xanomeline High Dose","TRT01PN":null,"TRT01A":"Xanomeline High Dose","SITEGR1":900,"SAFFL":"Y"},{"STUDYID":"CDISCPILOT01","USUBJID":"01-701-1148","AESEQ":3,"AETERM":"LOWER RESPIRATORY TRACT INFECTION","AEDECOD":"LOWER RESPIRATORY TRACT INFECTION","AESOC":"INFECTIONS AND INFESTATIONS","AESOCCD":null,"ASEV":"MODERATE","ASEVN":2,"AESER":"N","AREL":"NONE","AEACN":"","AEOUT":"NOT RECOVERED/NOT RESOLVED","ASTDT":"2013-10-12","AENDT":"2013-11-10","ASTDY":51,"AENDY":80,"TRTEMFL":"Y","AOCC01FL":"Y","AOCCFL":null,"TRTP":"Xanomeline High Dose","TRT01P":"Xanomeline High Dose","TRT01PN":null,"TRT01A":"Xanomeline High Dose","SITEGR1":900,"SAFFL":"Y"},{"STUDYID":"CDISCPILOT01","USUBJID":"01-701-1148","AESEQ":4,"AETERM":"LOWER RESPIRATORY TRACT INFECTION","AEDECOD":"LOWER RESPIRATORY TRACT INFECTION","AESOC":"INFECTIONS AND INFESTATIONS","AESOCCD":null,"ASEV":"MODERATE","ASEVN":2,"AESER":"N","AREL":"NONE","AEACN":"","AEOUT":"RECOVERED/RESOLVED","ASTDT":"2013-10-12","AENDT":"2013-11-10","ASTDY":51,"AENDY":80,"TRTEMFL":"Y","AOCC01FL":null,"AOCCFL":null,"TRTP":"Xanomeline High Dose","TRT01P":"Xanomeline High Dose","TRT01PN":null,"TRT01A":"Xanomeline High Dose","SITEGR1":900,"SAFFL":"Y"},{"STUDYID":"CDISCPILOT01","USUBJID":"01-701-1148","AESEQ":5,"AETERM":"FLANK PAIN","AEDECOD":"FLANK PAIN","AESOC":"MUSCULOSKELETAL AND CONNECTIVE TISSUE DISORDERS","AESOCCD":null,"ASEV":"MODERATE","ASEVN":2,"AESER":"N","AREL":"NONE","AEACN":"","AEOUT":"RECOVERED/RESOLVED","ASTDT":"2013-12-15","AENDT":"2013-12-17","ASTDY":115,"AENDY":117,"TRTEMFL":"Y","AOCC01FL":"Y","AOCCFL":null,"TRTP":"Xanomeline High Dose","TRT01P":"Xanomeline High Dose","TRT01PN":null,"TRT01A":"Xanomeline High Dose","SITEGR1":900,"SAFFL":"Y"},{"STUDYID":"CDISCPILOT01","USUBJID":"01-701-1148","AESEQ":6,"AETERM":"CALCULUS URETHRAL","AEDECOD":"CALCULUS URETHRAL","AESOC":"RENAL AND URINARY DISORDERS","AESOCCD":null,"ASEV":"MODERATE","ASEVN":2,"AESER":"N","AREL":"NONE","AEACN":"","AEOUT":"RECOVERED/RESOLVED","ASTDT":"2013-12-17","AENDT":"2013-12-17","ASTDY":117,"AENDY":117,"TRTEMFL":"Y","AOCC01FL":"Y","AOCCFL":null,"TRTP":"Xanomeline High Dose","TRT01P":"Xanomeline High Dose","TRT01PN":null,"TRT01A":"Xanomeline High Dose","SITEGR1":900,"SAFFL":"Y"},{"STUDYID":"CDISCPILOT01","USUBJID":"01-701-1148","AESEQ":7,"AETERM":"EPISTAXIS","AEDECOD":"EPISTAXIS","AESOC":"RESPIRATORY, THORACIC AND MEDIASTINAL DISORDERS","AESOCCD":null,"ASEV":"MILD","ASEVN":1,"AESER":"N","AREL":"NONE","AEACN":"","AEOUT":"RECOVERED/RESOLVED","ASTDT":"2014-01-03","AENDT":"2014-01-03","ASTDY":134,"AENDY":134,"TRTEMFL":"Y","AOCC01FL":"Y","AOCCFL":null,"TRTP":"Xanomeline High Dose","TRT01P":"Xanomeline High Dose","TRT01PN":null,"TRT01A":"Xanomeline High Dose","SITEGR1":900,"SAFFL":"Y"},{"STUDYID":"CDISCPILOT01","USUBJID":"01-701-1148","AESEQ":10,"AETERM":"ACTINIC KERATOSIS","AEDECOD":"ACTINIC KERATOSIS","AESOC":"SKIN AND SUBCUTANEOUS TISSUE DISORDERS","AESOCCD":null,"ASEV":"MILD","ASEVN":1,"AESER":"N","AREL":"NONE","AEACN":"","AEOUT":"NOT RECOVERED/NOT RESOLVED","ASTDT":"2014-02-12","AENDT":null,"ASTDY":174,"AENDY":null,"TRTEMFL":"Y","AOCC01FL":"Y","AOCCFL":null,"TRTP":"Xanomeline High Dose","TRT01P":"Xanomeline High Dose","TRT01PN":null,"TRT01A":"Xanomeline High Dose","SITEGR1":900,"SAFFL":"Y"},{"STUDYID":"CDISCPILOT01","USUBJID":"01-701-1148","AESEQ":8,"AETERM":"DYSPEPSIA","AEDECOD":"DYSPEPSIA","AESOC":"GASTROINTESTINAL DISORDERS","AESOCCD":null,"ASEV":"MODERATE","ASEVN":2,"AESER":"N","AREL":"NONE","AEACN":"","AEOUT":"NOT RECOVERED/NOT RESOLVED","ASTDT":null,"AENDT":null,"ASTDY":null,"AENDY":null,"TRTEMFL":"N","AOCC01FL":null,"AOCCFL":null,"TRTP":"Xanomeline High Dose","TRT01P":"Xanomeline High Dose","TRT01PN":null,"TRT01A":"Xanomeline High Dose","SITEGR1":900,"SAFFL":"Y"},{"STUDYID":"CDISCPILOT01","USUBJID":"01-701-1153","AESEQ":1,"AETERM":"INCREASED APPETITE","AEDECOD":"INCREASED APPETITE","AESOC":"METABOLISM AND NUTRITION DISORDERS","AESOCCD":null,"ASEV":"MILD","ASEVN":1,"AESER":"N","AREL":"POSSIBLE","AEACN":"","AEOUT":"NOT RECOVERED/NOT RESOLVED","ASTDT":"2013-10-13","AENDT":"2013-11-06","ASTDY":21,"AENDY":45,"TRTEMFL":"Y","AOCC01FL":"Y","AOCCFL":"Y","TRTP":"Placebo","TRT01P":"Placebo","TRT01PN":null,"TRT01A":"Placebo","SITEGR1":900,"SAFFL":"Y"},{"STUDYID":"CDISCPILOT01","USUBJID":"01-701-1153","AESEQ":2,"AETERM":"INCREASED APPETITE","AEDECOD":"INCREASED APPETITE","AESOC":"METABOLISM AND NUTRITION DISORDERS","AESOCCD":null,"ASEV":"MILD","ASEVN":1,"AESER":"N","AREL":"POSSIBLE","AEACN":"","AEOUT":"RECOVERED/RESOLVED","ASTDT":"2013-10-13","AENDT":"2013-11-06","ASTDY":21,"AENDY":45,"TRTEMFL":"Y","AOCC01FL":null,"AOCCFL":null,"TRTP":"Placebo","TRT01P":"Placebo","TRT01PN":null,"TRT01A":"Placebo","SITEGR1":900,"SAFFL":"Y"},{"STUDYID":"CDISCPILOT01","USUBJID":"01-701-1180","AESEQ":1,"AETERM":"VOMITING","AEDECOD":"VOMITING","AESOC":"GASTROINTESTINAL DISORDERS","AESOCCD":null,"ASEV":"MILD","ASEVN":1,"AESER":"N","AREL":"NONE","AEACN":"","AEOUT":"NOT RECOVERED/NOT RESOLVED","ASTDT":"2013-02-12","AENDT":"2013-02-12","ASTDY":1,"AENDY":1,"TRTEMFL":"Y","AOCC01FL":"Y","AOCCFL":"Y","TRTP":"Xanomeline High Dose","TRT01P":"Xanomeline High Dose","TRT01PN":null,"TRT01A":"Xanomeline High Dose","SITEGR1":900,"SAFFL":"Y"},{"STUDYID":"CDISCPILOT01","USUBJID":"01-701-1180","AESEQ":2,"AETERM":"VOMITING","AEDECOD":"VOMITING","AESOC":"GASTROINTESTINAL DISORDERS","AESOCCD":null,"ASEV":"MILD","ASEVN":1,"AESER":"N","AREL":"NONE","AEACN":"","AEOUT":"RECOVERED/RESOLVED","ASTDT":"2013-02-12","AENDT":"2013-02-12","ASTDY":1,"AENDY":1,"TRTEMFL":"Y","AOCC01FL":null,"AOCCFL":null,"TRTP":"Xanomeline High Dose","TRT01P":"Xanomeline High Dose","TRT01PN":null,"TRT01A":"Xanomeline High Dose","SITEGR1":900,"SAFFL":"Y"},{"STUDYID":"CDISCPILOT01","USUBJID":"01-701-1180","AESEQ":3,"AETERM":"MICTURITION URGENCY","AEDECOD":"MICTURITION URGENCY","AESOC":"RENAL AND URINARY DISORDERS","AESOCCD":null,"ASEV":"MILD","ASEVN":1,"AESER":"N","AREL":"POSSIBLE","AEACN":"","AEOUT":"NOT RECOVERED/NOT RESOLVED","ASTDT":"2013-02-15","AENDT":"2013-03-19","ASTDY":4,"AENDY":36,"TRTEMFL":"Y","AOCC01FL":"Y","AOCCFL":null,"TRTP":"Xanomeline High Dose","TRT01P":"Xanomeline High Dose","TRT01PN":null,"TRT01A":"Xanomeline High Dose","SITEGR1":900,"SAFFL":"Y"},{"STUDYID":"CDISCPILOT01","USUBJID":"01-701-1180","AESEQ":6,"AETERM":"MICTURITION URGENCY","AEDECOD":"MICTURITION URGENCY","AESOC":"RENAL AND URINARY DISORDERS","AESOCCD":null,"ASEV":"MILD","ASEVN":1,"AESER":"N","AREL":"POSSIBLE","AEACN":"","AEOUT":"RECOVERED/RESOLVED","ASTDT":"2013-02-15","AENDT":"2013-03-19","ASTDY":4,"AENDY":36,"TRTEMFL":"Y","AOCC01FL":null,"AOCCFL":null,"TRTP":"Xanomeline High Dose","TRT01P":"Xanomeline High Dose","TRT01PN":null,"TRT01A":"Xanomeline High Dose","SITEGR1":900,"SAFFL":"Y"},{"STUDYID":"CDISCPILOT01","USUBJID":"01-701-1180","AESEQ":5,"AETERM":"NASOPHARYNGITIS","AEDECOD":"NASOPHARYNGITIS","AESOC":"INFECTIONS AND INFESTATIONS","AESOCCD":null,"ASEV":"MILD","ASEVN":1,"AESER":"N","AREL":"NONE","AEACN":"","AEOUT":"RECOVERED/RESOLVED","ASTDT":"2013-03-06","AENDT":"2013-03-07","ASTDY":23,"AENDY":24,"TRTEMFL":"Y","AOCC01FL":"Y","AOCCFL":null,"TRTP":"Xanomeline High Dose","TRT01P":"Xanomeline High Dose","TRT01PN":null,"TRT01A":"Xanomeline High Dose","SITEGR1":900,"SAFFL":"Y"},{"STUDYID":"CDISCPILOT01","USUBJID":"01-701-1180","AESEQ":7,"AETERM":"APPLICATION SITE VESICLES","AEDECOD":"APPLICATION SITE VESICLES","AESOC":"GENERAL DISORDERS AND ADMINISTRATION SITE CONDITIONS","AESOCCD":null,"ASEV":"MODERATE","ASEVN":2,"AESER":"N","AREL":"POSSIBLE","AEACN":"","AEOUT":"NOT RECOVERED/NOT RESOLVED","ASTDT":"2013-03-19","AENDT":null,"ASTDY":36,"AENDY":null,"TRTEMFL":"Y","AOCC01FL":"Y","AOCCFL":null,"TRTP":"Xanomeline High Dose","TRT01P":"Xanomeline High Dose","TRT01PN":null,"TRT01A":"Xanomeline High Dose","SITEGR1":900,"SAFFL":"Y"},{"STUDYID":"CDISCPILOT01","USUBJID":"01-701-1180","AESEQ":8,"AETERM":"APPLICATION SITE PRURITUS","AEDECOD":"APPLICATION SITE PRURITUS","AESOC":"GENERAL DISORDERS AND ADMINISTRATION SITE CONDITIONS","AESOCCD":null,"ASEV":"MODERATE","ASEVN":2,"AESER":"N","AREL":"POSSIBLE","AEACN":"","AEOUT":"NOT RECOVERED/NOT RESOLVED","ASTDT":"2013-03-19","AENDT":null,"ASTDY":36,"AENDY":null,"TRTEMFL":"Y","AOCC01FL":"Y","AOCCFL":null,"TRTP":"Xanomeline High Dose","TRT01P":"Xanomeline High Dose","TRT01PN":null,"TRT01A":"Xanomeline High Dose","SITEGR1":900,"SAFFL":"Y"},{"STUDYID":"CDISCPILOT01","USUBJID":"01-701-1180","AESEQ":9,"AETERM":"APPLICATION SITE ERYTHEMA","AEDECOD":"APPLICATION SITE ERYTHEMA","AESOC":"GENERAL DISORDERS AND ADMINISTRATION SITE CONDITIONS","AESOCCD":null,"ASEV":"MODERATE","ASEVN":2,"AESER":"N","AREL":"POSSIBLE","AEACN":"","AEOUT":"NOT RECOVERED/NOT RESOLVED","ASTDT":"2013-03-19","AENDT":null,"ASTDY":36,"AENDY":null,"TRTEMFL":"Y","AOCC01FL":"Y","AOCCFL":null,"TRTP":"Xanomeline High Dose","TRT01P":"Xanomeline High Dose","TRT01PN":null,"TRT01A":"Xanomeline High Dose","SITEGR1":900,"SAFFL":"Y"},{"STUDYID":"CDISCPILOT01","USUBJID":"01-701-1180","AESEQ":4,"AETERM":"HEADACHE","AEDECOD":"HEADACHE","AESOC":"NERVOUS SYSTEM DISORDERS","AESOCCD":null,"ASEV":"MODERATE","ASEVN":2,"AESER":"N","AREL":"NONE","AEACN":"","AEOUT":"NOT RECOVERED/NOT RESOLVED","ASTDT":null,"AENDT":null,"ASTDY":null,"AENDY":null,"TRTEMFL":"N","AOCC01FL":null,"AOCCFL":null,"TRTP":"Xanomeline High Dose","TRT01P":"Xanomeline High Dose","TRT01PN":null,"TRT01A":"Xanomeline High Dose","SITEGR1":900,"SAFFL":"Y"},{"STUDYID":"CDISCPILOT01","USUBJID":"01-701-1181","AESEQ":1,"AETERM":"AGITATION","AEDECOD":"AGITATION","AESOC":"PSYCHIATRIC DISORDERS","AESOCCD":null,"ASEV":"MODERATE","ASEVN":2,"AESER":"N","AREL":"NONE","AEACN":"","AEOUT":"RECOVERED/RESOLVED","ASTDT":"2013-12-09","AENDT":"2013-12-09","ASTDY":5,"AENDY":5,"TRTEMFL":"Y","AOCC01FL":"Y","AOCCFL":"Y","TRTP":"Xanomeline High Dose","TRT01P":"Xanomeline High Dose","TRT01PN":null,"TRT01A":"Xanomeline Low Dose","SITEGR1":900,"SAFFL":"Y"},{"STUDYID":"CDISCPILOT01","USUBJID":"01-701-1188","AESEQ":1,"AETERM":"ERYTHEMA","AEDECOD":"ERYTHEMA","AESOC":"SKIN AND SUBCUTANEOUS TISSUE DISORDERS","AESOCCD":null,"ASEV":"MILD","ASEVN":1,"AESER":"N","AREL":"PROBABLE","AEACN":"","AEOUT":"NOT RECOVERED/NOT RESOLVED","ASTDT":"2013-02-16","AENDT":null,"ASTDY":2,"AENDY":null,"TRTEMFL":"Y","AOCC01FL":null,"AOCCFL":"Y","TRTP":"Xanomeline Low Dose","TRT01P":"Xanomeline Low Dose","TRT01PN":null,"TRT01A":"Xanomeline Low Dose","SITEGR1":900,"SAFFL":"Y"},{"STUDYID":"CDISCPILOT01","USUBJID":"01-701-1188","AESEQ":2,"AETERM":"PRURITUS","AEDECOD":"PRURITUS","AESOC":"SKIN AND SUBCUTANEOUS TISSUE DISORDERS","AESOCCD":null,"ASEV":"MILD","ASEVN":1,"AESER":"N","AREL":"PROBABLE","AEACN":"","AEOUT":"NOT RECOVERED/NOT RESOLVED","ASTDT":"2013-02-16","AENDT":null,"ASTDY":2,"AENDY":null,"TRTEMFL":"Y","AOCC01FL":null,"AOCCFL":null,"TRTP":"Xanomeline Low Dose","TRT01P":"Xanomeline Low Dose","TRT01PN":null,"TRT01A":"Xanomeline Low Dose","SITEGR1":900,"SAFFL":"Y"},{"STUDYID":"CDISCPILOT01","USUBJID":"01-701-1188","AESEQ":3,"AETERM":"ERYTHEMA","AEDECOD":"ERYTHEMA","AESOC":"SKIN AND SUBCUTANEOUS TISSUE DISORDERS","AESOCCD":null,"ASEV":"MODERATE","ASEVN":2,"AESER":"N","AREL":"PROBABLE","AEACN":"","AEOUT":"NOT RECOVERED/NOT RESOLVED","ASTDT":"2013-02-16","AENDT":null,"ASTDY":2,"AENDY":null,"TRTEMFL":"Y","AOCC01FL":"Y","AOCCFL":null,"TRTP":"Xanomeline Low Dose","TRT01P":"Xanomeline Low Dose","TRT01PN":null,"TRT01A":"Xanomeline Low Dose","SITEGR1":900,"SAFFL":"Y"},{"STUDYID":"CDISCPILOT01","USUBJID":"01-701-1188","AESEQ":4,"AETERM":"PRURITUS","AEDECOD":"PRURITUS","AESOC":"SKIN AND SUBCUTANEOUS TISSUE DISORDERS","AESOCCD":null,"ASEV":"MODERATE","ASEVN":2,"AESER":"N","AREL":"PROBABLE","AEACN":"","AEOUT":"NOT RECOVERED/NOT RESOLVED","ASTDT":"2013-02-16","AENDT":null,"ASTDY":2,"AENDY":null,"TRTEMFL":"Y","AOCC01FL":"Y","AOCCFL":null,"TRTP":"Xanomeline Low Dose","TRT01P":"Xanomeline Low Dose","TRT01PN":null,"TRT01A":"Xanomeline Low Dose","SITEGR1":900,"SAFFL":"Y"},{"STUDYID":"CDISCPILOT01","USUBJID":"01-701-1188","AESEQ":5,"AETERM":"URTICARIA","AEDECOD":"URTICARIA","AESOC":"SKIN AND SUBCUTANEOUS TISSUE DISORDERS","AESOCCD":null,"ASEV":"MILD","ASEVN":1,"AESER":"N","AREL":"PROBABLE","AEACN":"","AEOUT":"NOT RECOVERED/NOT RESOLVED","ASTDT":"2013-03-04","AENDT":null,"ASTDY":18,"AENDY":null,"TRTEMFL":"Y","AOCC01FL":null,"AOCCFL":null,"TRTP":"Xanomeline Low Dose","TRT01P":"Xanomeline Low Dose","TRT01PN":null,"TRT01A":"Xanomeline Low Dose","SITEGR1":900,"SAFFL":"Y"},{"STUDYID":"CDISCPILOT01","USUBJID":"01-701-1188","AESEQ":6,"AETERM":"URTICARIA","AEDECOD":"URTICARIA","AESOC":"SKIN AND SUBCUTANEOUS TISSUE DISORDERS","AESOCCD":null,"ASEV":"MODERATE","ASEVN":2,"AESER":"N","AREL":"PROBABLE","AEACN":"","AEOUT":"NOT RECOVERED/NOT RESOLVED","ASTDT":"2013-03-04","AENDT":null,"ASTDY":18,"AENDY":null,"TRTEMFL":"Y","AOCC01FL":"Y","AOCCFL":null,"TRTP":"Xanomeline Low Dose","TRT01P":"Xanomeline Low Dose","TRT01PN":null,"TRT01A":"Xanomeline Low Dose","SITEGR1":900,"SAFFL":"Y"},{"STUDYID":"CDISCPILOT01","USUBJID":"01-701-1188","AESEQ":7,"AETERM":"APPLICATION SITE URTICARIA","AEDECOD":"APPLICATION SITE URTICARIA","AESOC":"GENERAL DISORDERS AND ADMINISTRATION SITE CONDITIONS","AESOCCD":null,"ASEV":"MILD","ASEVN":1,"AESER":"N","AREL":"PROBABLE","AEACN":"","AEOUT":"NOT RECOVERED/NOT RESOLVED","ASTDT":"2013-03-21","AENDT":null,"ASTDY":35,"AENDY":null,"TRTEMFL":"Y","AOCC01FL":"Y","AOCCFL":null,"TRTP":"Xanomeline Low Dose","TRT01P":"Xanomeline Low Dose","TRT01PN":null,"TRT01A":"Xanomeline Low Dose","SITEGR1":900,"SAFFL":"Y"},{"STUDYID":"CDISCPILOT01","USUBJID":"01-701-1188","AESEQ":8,"AETERM":"URTICARIA","AEDECOD":"URTICARIA","AESOC":"SKIN AND SUBCUTANEOUS TISSUE DISORDERS","AESOCCD":null,"ASEV":"MILD","ASEVN":1,"AESER":"N","AREL":"PROBABLE","AEACN":"","AEOUT":"NOT RECOVERED/NOT RESOLVED","ASTDT":"2013-03-21","AENDT":null,"ASTDY":35,"AENDY":null,"TRTEMFL":"Y","AOCC01FL":null,"AOCCFL":null,"TRTP":"Xanomeline Low Dose","TRT01P":"Xanomeline Low Dose","TRT01PN":null,"TRT01A":"Xanomeline Low Dose","SITEGR1":900,"SAFFL":"Y"},{"STUDYID":"CDISCPILOT01","USUBJID":"01-701-1192","AESEQ":1,"AETERM":"NASAL MUCOSA BIOPSY","AEDECOD":"NASAL MUCOSA BIOPSY","AESOC":"INVESTIGATIONS","AESOCCD":null,"ASEV":"MILD","ASEVN":1,"AESER":"N","AREL":"NONE","AEACN":"","AEOUT":"RECOVERED/RESOLVED","ASTDT":"2012-08-03","AENDT":"2012-08-03","ASTDY":13,"AENDY":13,"TRTEMFL":"Y","AOCC01FL":"Y","AOCCFL":"Y","TRTP":"Xanomeline Low Dose","TRT01P":"Xanomeline Low Dose","TRT01PN":null,"TRT01A":"Xanomeline Low Dose","SITEGR1":900,"SAFFL":"Y"},{"STUDYID":"CDISCPILOT01","USUBJID":"01-701-1192","AESEQ":2,"AETERM":"SECRETION DISCHARGE","AEDECOD":"SECRETION DISCHARGE","AESOC":"GENERAL DISORDERS AND ADMINISTRATION SITE CONDITIONS","AESOCCD":null,"ASEV":"MILD","ASEVN":1,"AESER":"N","AREL":"NONE","AEACN":"","AEOUT":"NOT RECOVERED/NOT RESOLVED","ASTDT":"2012-08-07","AENDT":"2012-09-14","ASTDY":17,"AENDY":55,"TRTEMFL":"Y","AOCC01FL":"Y","AOCCFL":null,"TRTP":"Xanomeline Low Dose","TRT01P":"Xanomeline Low Dose","TRT01PN":null,"TRT01A":"Xanomeline Low Dose","SITEGR1":900,"SAFFL":"Y"},{"STUDYID":"CDISCPILOT01","USUBJID":"01-701-1192","AESEQ":3,"AETERM":"ERYTHEMA","AEDECOD":"ERYTHEMA","AESOC":"SKIN AND SUBCUTANEOUS TISSUE DISORDERS","AESOCCD":null,"ASEV":"MILD","ASEVN":1,"AESER":"N","AREL":"NONE","AEACN":"","AEOUT":"NOT RECOVERED/NOT RESOLVED","ASTDT":"2012-08-07","AENDT":"2012-09-14","ASTDY":17,"AENDY":55,"TRTEMFL":"Y","AOCC01FL":"Y","AOCCFL":null,"TRTP":"Xanomeline Low Dose","TRT01P":"Xanomeline Low Dose","TRT01PN":null,"TRT01A":"Xanomeline Low Dose","SITEGR1":900,"SAFFL":"Y"},{"STUDYID":"CDISCPILOT01","USUBJID":"01-701-1192","AESEQ":5,"AETERM":"SECRETION DISCHARGE","AEDECOD":"SECRETION DISCHARGE","AESOC":"GENERAL DISORDERS AND ADMINISTRATION SITE CONDITIONS","AESOCCD":null,"ASEV":"MILD","ASEVN":1,"AESER":"N","AREL":"NONE","AEACN":"","AEOUT":"RECOVERED/RESOLVED","ASTDT":"2012-08-07","AENDT":"2012-09-14","ASTDY":17,"AENDY":55,"TRTEMFL":"Y","AOCC01FL":null,"AOCCFL":null,"TRTP":"Xanomeline Low Dose","TRT01P":"Xanomeline Low Dose","TRT01PN":null,"TRT01A":"Xanomeline Low Dose","SITEGR1":900,"SAFFL":"Y"},{"STUDYID":"CDISCPILOT01","USUBJID":"01-701-1192","AESEQ":6,"AETERM":"ERYTHEMA","AEDECOD":"ERYTHEMA","AESOC":"SKIN AND SUBCUTANEOUS TISSUE DISORDERS","AESOCCD":null,"ASEV":"MILD","ASEVN":1,"AESER":"N","AREL":"NONE","AEACN":"","AEOUT":"RECOVERED/RESOLVED","ASTDT":"2012-08-07","AENDT":"2012-09-14","ASTDY":17,"AENDY":55,"TRTEMFL":"Y","AOCC01FL":null,"AOCCFL":null,"TRTP":"Xanomeline Low Dose","TRT01P":"Xanomeline Low Dose","TRT01PN":null,"TRT01A":"Xanomeline Low Dose","SITEGR1":900,"SAFFL":"Y"},{"STUDYID":"CDISCPILOT01","USUBJID":"01-701-1192","AESEQ":7,"AETERM":"PNEUMONIA","AEDECOD":"PNEUMONIA","AESOC":"INFECTIONS AND INFESTATIONS","AESOCCD":null,"ASEV":"MODERATE","ASEVN":2,"AESER":"N","AREL":"NONE","AEACN":"","AEOUT":"NOT RECOVERED/NOT RESOLVED","ASTDT":"2012-09-07","AENDT":"2012-10-06","ASTDY":48,"AENDY":77,"TRTEMFL":"Y","AOCC01FL":"Y","AOCCFL":null,"TRTP":"Xanomeline Low Dose","TRT01P":"Xanomeline Low Dose","TRT01PN":null,"TRT01A":"Xanomeline Low Dose","SITEGR1":900,"SAFFL":"Y"},{"STUDYID":"CDISCPILOT01","USUBJID":"01-701-1192","AESEQ":8,"AETERM":"MUSCULAR WEAKNESS","AEDECOD":"MUSCULAR WEAKNESS","AESOC":"MUSCULOSKELETAL AND CONNECTIVE TISSUE DISORDERS","AESOCCD":null,"ASEV":"MODERATE","ASEVN":2,"AESER":"N","AREL":"NONE","AEACN":"","AEOUT":"NOT RECOVERED/NOT RESOLVED","ASTDT":"2012-09-07","AENDT":"2012-09-30","ASTDY":48,"AENDY":71,"TRTEMFL":"Y","AOCC01FL":"Y","AOCCFL":null,"TRTP":"Xanomeline Low Dose","TRT01P":"Xanomeline Low Dose","TRT01PN":null,"TRT01A":"Xanomeline Low Dose","SITEGR1":900,"SAFFL":"Y"},{"STUDYID":"CDISCPILOT01","USUBJID":"01-701-1192","AESEQ":10,"AETERM":"PNEUMONIA","AEDECOD":"PNEUMONIA","AESOC":"INFECTIONS AND INFESTATIONS","AESOCCD":null,"ASEV":"MODERATE","ASEVN":2,"AESER":"N","AREL":"NONE","AEACN":"","AEOUT":"RECOVERED/RESOLVED","ASTDT":"2012-09-07","AENDT":"2012-10-06","ASTDY":48,"AENDY":77,"TRTEMFL":"Y","AOCC01FL":null,"AOCCFL":null,"TRTP":"Xanomeline Low Dose","TRT01P":"Xanomeline Low Dose","TRT01PN":null,"TRT01A":"Xanomeline Low Dose","SITEGR1":900,"SAFFL":"Y"},{"STUDYID":"CDISCPILOT01","USUBJID":"01-701-1192","AESEQ":11,"AETERM":"MUSCULAR WEAKNESS","AEDECOD":"MUSCULAR WEAKNESS","AESOC":"MUSCULOSKELETAL AND CONNECTIVE TISSUE DISORDERS","AESOCCD":null,"ASEV":"MODERATE","ASEVN":2,"AESER":"N","AREL":"NONE","AEACN":"","AEOUT":"RECOVERED/RESOLVED","ASTDT":"2012-09-07","AENDT":"2012-09-30","ASTDY":48,"AENDY":71,"TRTEMFL":"Y","AOCC01FL":null,"AOCCFL":null,"TRTP":"Xanomeline Low Dose","TRT01P":"Xanomeline Low Dose","TRT01PN":null,"TRT01A":"Xanomeline Low Dose","SITEGR1":900,"SAFFL":"Y"},{"STUDYID":"CDISCPILOT01","USUBJID":"01-701-1192","AESEQ":12,"AETERM":"APPLICATION SITE IRRITATION","AEDECOD":"APPLICATION SITE IRRITATION","AESOC":"GENERAL DISORDERS AND ADMINISTRATION SITE CONDITIONS","AESOCCD":null,"ASEV":"MILD","ASEVN":1,"AESER":"N","AREL":"PROBABLE","AEACN":"","AEOUT":"NOT RECOVERED/NOT RESOLVED","ASTDT":"2012-12-05","AENDT":"2012-12-16","ASTDY":137,"AENDY":148,"TRTEMFL":"Y","AOCC01FL":"Y","AOCCFL":null,"TRTP":"Xanomeline Low Dose","TRT01P":"Xanomeline Low Dose","TRT01PN":null,"TRT01A":"Xanomeline Low Dose","SITEGR1":900,"SAFFL":"Y"},{"STUDYID":"CDISCPILOT01","USUBJID":"01-701-1192","AESEQ":13,"AETERM":"APPLICATION SITE ERYTHEMA","AEDECOD":"APPLICATION SITE ERYTHEMA","AESOC":"GENERAL DISORDERS AND ADMINISTRATION SITE CONDITIONS","AESOCCD":null,"ASEV":"MILD","ASEVN":1,"AESER":"N","AREL":"PROBABLE","AEACN":"","AEOUT":"NOT RECOVERED/NOT RESOLVED","ASTDT":"2012-12-05","AENDT":null,"ASTDY":137,"AENDY":null,"TRTEMFL":"Y","AOCC01FL":"Y","AOCCFL":null,"TRTP":"Xanomeline Low Dose","TRT01P":"Xanomeline Low Dose","TRT01PN":null,"TRT01A":"Xanomeline Low Dose","SITEGR1":900,"SAFFL":"Y"},{"STUDYID":"CDISCPILOT01","USUBJID":"01-701-1192","AESEQ":14,"AETERM":"APPLICATION SITE PRURITUS","AEDECOD":"APPLICATION SITE PRURITUS","AESOC":"GENERAL DISORDERS AND ADMINISTRATION SITE CONDITIONS","AESOCCD":null,"ASEV":"MILD","ASEVN":1,"AESER":"N","AREL":"PROBABLE","AEACN":"","AEOUT":"NOT RECOVERED/NOT RESOLVED","ASTDT":"2012-12-05","AENDT":null,"ASTDY":137,"AENDY":null,"TRTEMFL":"Y","AOCC01FL":"Y","AOCCFL":null,"TRTP":"Xanomeline Low Dose","TRT01P":"Xanomeline Low Dose","TRT01PN":null,"TRT01A":"Xanomeline Low Dose","SITEGR1":900,"SAFFL":"Y"},{"STUDYID":"CDISCPILOT01","USUBJID":"01-701-1192","AESEQ":15,"AETERM":"APPLICATION SITE IRRITATION","AEDECOD":"APPLICATION SITE IRRITATION","AESOC":"GENERAL DISORDERS AND ADMINISTRATION SITE CONDITIONS","AESOCCD":null,"ASEV":"MILD","ASEVN":1,"AESER":"N","AREL":"PROBABLE","AEACN":"","AEOUT":"RECOVERED/RESOLVED","ASTDT":"2012-12-05","AENDT":"2012-12-16","ASTDY":137,"AENDY":148,"TRTEMFL":"Y","AOCC01FL":null,"AOCCFL":null,"TRTP":"Xanomeline Low Dose","TRT01P":"Xanomeline Low Dose","TRT01PN":null,"TRT01A":"Xanomeline Low Dose","SITEGR1":900,"SAFFL":"Y"},{"STUDYID":"CDISCPILOT01","USUBJID":"01-701-1192","AESEQ":4,"AETERM":"COUGH","AEDECOD":"COUGH","AESOC":"RESPIRATORY, THORACIC AND MEDIASTINAL DISORDERS","AESOCCD":null,"ASEV":"MODERATE","ASEVN":2,"AESER":"N","AREL":"NONE","AEACN":"","AEOUT":"NOT RECOVERED/NOT RESOLVED","ASTDT":null,"AENDT":null,"ASTDY":null,"AENDY":null,"TRTEMFL":"N","AOCC01FL":null,"AOCCFL":null,"TRTP":"Xanomeline Low Dose","TRT01P":"Xanomeline Low Dose","TRT01PN":null,"TRT01A":"Xanomeline Low Dose","SITEGR1":900,"SAFFL":"Y"},{"STUDYID":"CDISCPILOT01","USUBJID":"01-701-1192","AESEQ":9,"AETERM":"COUGH","AEDECOD":"COUGH","AESOC":"RESPIRATORY, THORACIC AND MEDIASTINAL DISORDERS","AESOCCD":null,"ASEV":"MILD","ASEVN":1,"AESER":"N","AREL":"NONE","AEACN":"","AEOUT":"NOT RECOVERED/NOT RESOLVED","ASTDT":null,"AENDT":null,"ASTDY":null,"AENDY":null,"TRTEMFL":"N","AOCC01FL":null,"AOCCFL":null,"TRTP":"Xanomeline Low Dose","TRT01P":"Xanomeline Low Dose","TRT01PN":null,"TRT01A":"Xanomeline Low Dose","SITEGR1":900,"SAFFL":"Y"},{"STUDYID":"CDISCPILOT01","USUBJID":"01-701-1203","AESEQ":1,"AETERM":"EYE LASER SURGERY","AEDECOD":"EYE LASER SURGERY","AESOC":"SURGICAL AND MEDICAL PROCEDURES","AESOCCD":null,"ASEV":"MILD","ASEVN":1,"AESER":"N","AREL":"NONE","AEACN":"","AEOUT":"RECOVERED/RESOLVED","ASTDT":"2013-03-21","AENDT":"2013-03-21","ASTDY":48,"AENDY":48,"TRTEMFL":"Y","AOCC01FL":"Y","AOCCFL":"Y","TRTP":"Placebo","TRT01P":"Placebo","TRT01PN":null,"TRT01A":"Placebo","SITEGR1":900,"SAFFL":"Y"},{"STUDYID":"CDISCPILOT01","USUBJID":"01-701-1211","AESEQ":1,"AETERM":"APPLICATION SITE PRURITUS","AEDECOD":"APPLICATION SITE PRURITUS","AESOC":"GENERAL DISORDERS AND ADMINISTRATION SITE CONDITIONS","AESOCCD":null,"ASEV":"MILD","ASEVN":1,"AESER":"N","AREL":"POSSIBLE","AEACN":"","AEOUT":"NOT RECOVERED/NOT RESOLVED","ASTDT":"2012-11-16","AENDT":null,"ASTDY":2,"AENDY":null,"TRTEMFL":"Y","AOCC01FL":"Y","AOCCFL":"Y","TRTP":"Xanomeline Low Dose","TRT01P":"Xanomeline Low Dose","TRT01PN":null,"TRT01A":"Xanomeline Low Dose","SITEGR1":900,"SAFFL":"Y"},{"STUDYID":"CDISCPILOT01","USUBJID":"01-701-1211","AESEQ":2,"AETERM":"JOINT DISLOCATION","AEDECOD":"JOINT DISLOCATION","AESOC":"INJURY, POISONING AND PROCEDURAL COMPLICATIONS","AESOCCD":null,"ASEV":"MODERATE","ASEVN":2,"AESER":"N","AREL":"NONE","AEACN":"","AEOUT":"RECOVERED/RESOLVED","ASTDT":"2012-11-21","AENDT":"2012-11-21","ASTDY":7,"AENDY":7,"TRTEMFL":"Y","AOCC01FL":"Y","AOCCFL":null,"TRTP":"Xanomeline Low Dose","TRT01P":"Xanomeline Low Dose","TRT01PN":null,"TRT01A":"Xanomeline Low Dose","SITEGR1":900,"SAFFL":"Y"},{"STUDYID":"CDISCPILOT01","USUBJID":"01-701-1211","AESEQ":3,"AETERM":"SHOULDER PAIN","AEDECOD":"SHOULDER PAIN","AESOC":"MUSCULOSKELETAL AND CONNECTIVE TISSUE DISORDERS","AESOCCD":null,"ASEV":"MILD","ASEVN":1,"AESER":"N","AREL":"NONE","AEACN":"","AEOUT":"NOT RECOVERED/NOT RESOLVED","ASTDT":"2012-11-21","AENDT":null,"ASTDY":7,"AENDY":null,"TRTEMFL":"Y","AOCC01FL":"Y","AOCCFL":null,"TRTP":"Xanomeline Low Dose","TRT01P":"Xanomeline Low Dose","TRT01PN":null,"TRT01A":"Xanomeline Low Dose","SITEGR1":900,"SAFFL":"Y"},{"STUDYID":"CDISCPILOT01","USUBJID":"01-701-1211","AESEQ":4,"AETERM":"INCONTINENCE","AEDECOD":"INCONTINENCE","AESOC":"RENAL AND URINARY DISORDERS","AESOCCD":null,"ASEV":"MILD","ASEVN":1,"AESER":"N","AREL":"NONE","AEACN":"","AEOUT":"NOT RECOVERED/NOT RESOLVED","ASTDT":"2012-11-22","AENDT":null,"ASTDY":8,"AENDY":null,"TRTEMFL":"Y","AOCC01FL":"Y","AOCCFL":null,"TRTP":"Xanomeline Low Dose","TRT01P":"Xanomeline Low Dose","TRT01PN":null,"TRT01A":"Xanomeline Low Dose","SITEGR1":900,"SAFFL":"Y"},{"STUDYID":"CDISCPILOT01","USUBJID":"01-701-1211","AESEQ":5,"AETERM":"APPLICATION SITE ERYTHEMA","AEDECOD":"APPLICATION SITE ERYTHEMA","AESOC":"GENERAL DISORDERS AND ADMINISTRATION SITE CONDITIONS","AESOCCD":null,"ASEV":"MILD","ASEVN":1,"AESER":"N","AREL":"POSSIBLE","AEACN":"","AEOUT":"NOT RECOVERED/NOT RESOLVED","ASTDT":"2012-11-29","AENDT":null,"ASTDY":15,"AENDY":null,"TRTEMFL":"Y","AOCC01FL":"Y","AOCCFL":null,"TRTP":"Xanomeline Low Dose","TRT01P":"Xanomeline Low Dose","TRT01PN":null,"TRT01A":"Xanomeline Low Dose","SITEGR1":900,"SAFFL":"Y"},{"STUDYID":"CDISCPILOT01","USUBJID":"01-701-1211","AESEQ":6,"AETERM":"SKIN LACERATION","AEDECOD":"SKIN LACERATION","AESOC":"INJURY, POISONING AND PROCEDURAL COMPLICATIONS","AESOCCD":null,"ASEV":"MILD","ASEVN":1,"AESER":"N","AREL":"NONE","AEACN":"","AEOUT":"NOT RECOVERED/NOT RESOLVED","ASTDT":"2012-12-09","AENDT":null,"ASTDY":25,"AENDY":null,"TRTEMFL":"Y","AOCC01FL":"Y","AOCCFL":null,"TRTP":"Xanomeline Low Dose","TRT01P":"Xanomeline Low Dose","TRT01PN":null,"TRT01A":"Xanomeline Low Dose","SITEGR1":900,"SAFFL":"Y"},{"STUDYID":"CDISCPILOT01","USUBJID":"01-701-1211","AESEQ":7,"AETERM":"CONFUSIONAL STATE","AEDECOD":"CONFUSIONAL STATE","AESOC":"PSYCHIATRIC DISORDERS","AESOCCD":null,"ASEV":"MODERATE","ASEVN":2,"AESER":"N","AREL":"NONE","AEACN":"","AEOUT":"NOT RECOVERED/NOT RESOLVED","ASTDT":"2013-01-11","AENDT":null,"ASTDY":58,"AENDY":null,"TRTEMFL":"Y","AOCC01FL":"Y","AOCCFL":null,"TRTP":"Xanomeline Low Dose","TRT01P":"Xanomeline Low Dose","TRT01PN":null,"TRT01A":"Xanomeline Low Dose","SITEGR1":900,"SAFFL":"Y"},{"STUDYID":"CDISCPILOT01","USUBJID":"01-701-1211","AESEQ":8,"AETERM":"DYSPNOEA","AEDECOD":"DYSPNOEA","AESOC":"RESPIRATORY, THORACIC AND MEDIASTINAL DISORDERS","AESOCCD":null,"ASEV":"MODERATE","ASEVN":2,"AESER":"N","AREL":"NONE","AEACN":"","AEOUT":"NOT RECOVERED/NOT RESOLVED","ASTDT":"2013-01-11","AENDT":null,"ASTDY":58,"AENDY":null,"TRTEMFL":"Y","AOCC01FL":"Y","AOCCFL":null,"TRTP":"Xanomeline Low Dose","TRT01P":"Xanomeline Low Dose","TRT01PN":null,"TRT01A":"Xanomeline Low Dose","SITEGR1":900,"SAFFL":"Y"},{"STUDYID":"CDISCPILOT01","USUBJID":"01-701-1211","AESEQ":9,"AETERM":"SUDDEN DEATH","AEDECOD":"SUDDEN DEATH","AESOC":"GENERAL DISORDERS AND ADMINISTRATION SITE CONDITIONS","AESOCCD":null,"ASEV":"SEVERE","ASEVN":3,"AESER":"N","AREL":"NONE","AEACN":"","AEOUT":"FATAL","ASTDT":"2013-01-14","AENDT":"2013-01-14","ASTDY":61,"AENDY":61,"TRTEMFL":"Y","AOCC01FL":"Y","AOCCFL":null,"TRTP":"Xanomeline Low Dose","TRT01P":"Xanomeline Low Dose","TRT01PN":null,"TRT01A":"Xanomeline Low Dose","SITEGR1":900,"SAFFL":"Y"},{"STUDYID":"CDISCPILOT01","USUBJID":"01-701-1239","AESEQ":1,"AETERM":"ERYTHEMA","AEDECOD":"ERYTHEMA","AESOC":"SKIN AND SUBCUTANEOUS TISSUE DISORDERS","AESOCCD":null,"ASEV":"MILD","ASEVN":1,"AESER":"N","AREL":"POSSIBLE","AEACN":"","AEOUT":"NOT RECOVERED/NOT RESOLVED","ASTDT":"2014-01-12","AENDT":null,"ASTDY":2,"AENDY":null,"TRTEMFL":"Y","AOCC01FL":null,"AOCCFL":"Y","TRTP":"Xanomeline High Dose","TRT01P":"Xanomeline High Dose","TRT01PN":null,"TRT01A":"Xanomeline High Dose","SITEGR1":900,"SAFFL":"Y"},{"STUDYID":"CDISCPILOT01","USUBJID":"01-701-1239","AESEQ":2,"AETERM":"SKIN ODOUR ABNORMAL","AEDECOD":"SKIN ODOUR ABNORMAL","AESOC":"SKIN AND SUBCUTANEOUS TISSUE DISORDERS","AESOCCD":null,"ASEV":"MILD","ASEVN":1,"AESER":"N","AREL":"REMOTE","AEACN":"","AEOUT":"NOT RECOVERED/NOT RESOLVED","ASTDT":"2014-01-12","AENDT":null,"ASTDY":2,"AENDY":null,"TRTEMFL":"Y","AOCC01FL":"Y","AOCCFL":null,"TRTP":"Xanomeline High Dose","TRT01P":"Xanomeline High Dose","TRT01PN":null,"TRT01A":"Xanomeline High Dose","SITEGR1":900,"SAFFL":"Y"},{"STUDYID":"CDISCPILOT01","USUBJID":"01-701-1239","AESEQ":6,"AETERM":"ERYTHEMA","AEDECOD":"ERYTHEMA","AESOC":"SKIN AND SUBCUTANEOUS TISSUE DISORDERS","AESOCCD":null,"ASEV":"MODERATE","ASEVN":2,"AESER":"N","AREL":"POSSIBLE","AEACN":"","AEOUT":"NOT RECOVERED/NOT RESOLVED","ASTDT":"2014-01-12","AENDT":null,"ASTDY":2,"AENDY":null,"TRTEMFL":"Y","AOCC01FL":"Y","AOCCFL":null,"TRTP":"Xanomeline High Dose","TRT01P":"Xanomeline High Dose","TRT01PN":null,"TRT01A":"Xanomeline High Dose","SITEGR1":900,"SAFFL":"Y"},{"STUDYID":"CDISCPILOT01","USUBJID":"01-701-1239","AESEQ":3,"AETERM":"PRURITUS","AEDECOD":"PRURITUS","AESOC":"SKIN AND SUBCUTANEOUS TISSUE DISORDERS","AESOCCD":null,"ASEV":"MILD","ASEVN":1,"AESER":"N","AREL":"POSSIBLE","AEACN":"","AEOUT":"NOT RECOVERED/NOT RESOLVED","ASTDT":"2014-01-13","AENDT":null,"ASTDY":3,"AENDY":null,"TRTEMFL":"Y","AOCC01FL":"Y","AOCCFL":null,"TRTP":"Xanomeline High Dose","TRT01P":"Xanomeline High Dose","TRT01PN":null,"TRT01A":"Xanomeline High Dose","SITEGR1":900,"SAFFL":"Y"},{"STUDYID":"CDISCPILOT01","USUBJID":"01-701-1239","AESEQ":4,"AETERM":"APPLICATION SITE IRRITATION","AEDECOD":"APPLICATION SITE IRRITATION","AESOC":"GENERAL DISORDERS AND ADMINISTRATION SITE CONDITIONS","AESOCCD":null,"ASEV":"MILD","ASEVN":1,"AESER":"N","AREL":"PROBABLE","AEACN":"","AEOUT":"NOT RECOVERED/NOT RESOLVED","ASTDT":"2014-01-20","AENDT":"2014-02-08","ASTDY":10,"AENDY":29,"TRTEMFL":"Y","AOCC01FL":"Y","AOCCFL":null,"TRTP":"Xanomeline High Dose","TRT01P":"Xanomeline High Dose","TRT01PN":null,"TRT01A":"Xanomeline High Dose","SITEGR1":900,"SAFFL":"Y"},{"STUDYID":"CDISCPILOT01","USUBJID":"01-701-1239","AESEQ":5,"AETERM":"APPLICATION SITE IRRITATION","AEDECOD":"APPLICATION SITE IRRITATION","AESOC":"GENERAL DISORDERS AND ADMINISTRATION SITE CONDITIONS","AESOCCD":null,"ASEV":"MILD","ASEVN":1,"AESER":"N","AREL":"PROBABLE","AEACN":"","AEOUT":"RECOVERED/RESOLVED","ASTDT":"2014-01-20","AENDT":"2014-02-08","ASTDY":10,"AENDY":29,"TRTEMFL":"Y","AOCC01FL":null,"AOCCFL":null,"TRTP":"Xanomeline High Dose","TRT01P":"Xanomeline High Dose","TRT01PN":null,"TRT01A":"Xanomeline High Dose","SITEGR1":900,"SAFFL":"Y"},{"STUDYID":"CDISCPILOT01","USUBJID":"01-701-1239","AESEQ":7,"AETERM":"UPPER RESPIRATORY TRACT INFECTION","AEDECOD":"UPPER RESPIRATORY TRACT INFECTION","AESOC":"INFECTIONS AND INFESTATIONS","AESOCCD":null,"ASEV":"MILD","ASEVN":1,"AESER":"N","AREL":"NONE","AEACN":"","AEOUT":"NOT RECOVERED/NOT RESOLVED","ASTDT":"2014-02-20","AENDT":"2014-03-12","ASTDY":41,"AENDY":61,"TRTEMFL":"Y","AOCC01FL":"Y","AOCCFL":null,"TRTP":"Xanomeline High Dose","TRT01P":"Xanomeline High Dose","TRT01PN":null,"TRT01A":"Xanomeline High Dose","SITEGR1":900,"SAFFL":"Y"},{"STUDYID":"CDISCPILOT01","USUBJID":"01-701-1239","AESEQ":8,"AETERM":"UPPER RESPIRATORY TRACT INFECTION","AEDECOD":"UPPER RESPIRATORY TRACT INFECTION","AESOC":"INFECTIONS AND INFESTATIONS","AESOCCD":null,"ASEV":"MILD","ASEVN":1,"AESER":"N","AREL":"NONE","AEACN":"","AEOUT":"RECOVERED/RESOLVED","ASTDT":"2014-02-20","AENDT":"2014-03-12","ASTDY":41,"AENDY":61,"TRTEMFL":"Y","AOCC01FL":null,"AOCCFL":null,"TRTP":"Xanomeline High Dose","TRT01P":"Xanomeline High Dose","TRT01PN":null,"TRT01A":"Xanomeline High Dose","SITEGR1":900,"SAFFL":"Y"},{"STUDYID":"CDISCPILOT01","USUBJID":"01-701-1239","AESEQ":9,"AETERM":"FATIGUE","AEDECOD":"FATIGUE","AESOC":"GENERAL DISORDERS AND ADMINISTRATION SITE CONDITIONS","AESOCCD":null,"ASEV":"MILD","ASEVN":1,"AESER":"N","AREL":"REMOTE","AEACN":"","AEOUT":"NOT RECOVERED/NOT RESOLVED","ASTDT":null,"AENDT":null,"ASTDY":null,"AENDY":null,"TRTEMFL":"N","AOCC01FL":null,"AOCCFL":null,"TRTP":"Xanomeline High Dose","TRT01P":"Xanomeline High Dose","TRT01PN":null,"TRT01A":"Xanomeline High Dose","SITEGR1":900,"SAFFL":"Y"},{"STUDYID":"CDISCPILOT01","USUBJID":"01-701-1239","AESEQ":10,"AETERM":"HORDEOLUM","AEDECOD":"HORDEOLUM","AESOC":"INFECTIONS AND INFESTATIONS","AESOCCD":null,"ASEV":"MILD","ASEVN":1,"AESER":"N","AREL":"NONE","AEACN":"","AEOUT":"NOT RECOVERED/NOT RESOLVED","ASTDT":null,"AENDT":null,"ASTDY":null,"AENDY":null,"TRTEMFL":"N","AOCC01FL":null,"AOCCFL":null,"TRTP":"Xanomeline High Dose","TRT01P":"Xanomeline High Dose","TRT01PN":null,"TRT01A":"Xanomeline High Dose","SITEGR1":900,"SAFFL":"Y"},{"STUDYID":"CDISCPILOT01","USUBJID":"01-701-1275","AESEQ":1,"AETERM":"NAUSEA","AEDECOD":"NAUSEA","AESOC":"GASTROINTESTINAL DISORDERS","AESOCCD":null,"ASEV":"MILD","ASEVN":1,"AESER":"N","AREL":"POSSIBLE","AEACN":"","AEOUT":"NOT RECOVERED/NOT RESOLVED","ASTDT":"2014-02-13","AENDT":"2014-06-03","ASTDY":7,"AENDY":117,"TRTEMFL":"Y","AOCC01FL":"Y","AOCCFL":"Y","TRTP":"Xanomeline High Dose","TRT01P":"Xanomeline High Dose","TRT01PN":null,"TRT01A":"Xanomeline High Dose","SITEGR1":900,"SAFFL":"Y"},{"STUDYID":"CDISCPILOT01","USUBJID":"01-701-1275","AESEQ":11,"AETERM":"NAUSEA","AEDECOD":"NAUSEA","AESOC":"GASTROINTESTINAL DISORDERS","AESOCCD":null,"ASEV":"MILD","ASEVN":1,"AESER":"N","AREL":"POSSIBLE","AEACN":"","AEOUT":"RECOVERED/RESOLVED","ASTDT":"2014-02-13","AENDT":"2014-06-03","ASTDY":7,"AENDY":117,"TRTEMFL":"Y","AOCC01FL":null,"AOCCFL":null,"TRTP":"Xanomeline High Dose","TRT01P":"Xanomeline High Dose","TRT01PN":null,"TRT01A":"Xanomeline High Dose","SITEGR1":900,"SAFFL":"Y"},{"STUDYID":"CDISCPILOT01","USUBJID":"01-701-1275","AESEQ":2,"AETERM":"VOMITING","AEDECOD":"VOMITING","AESOC":"GASTROINTESTINAL DISORDERS","AESOCCD":null,"ASEV":"MILD","ASEVN":1,"AESER":"N","AREL":"POSSIBLE","AEACN":"","AEOUT":"RECOVERED/RESOLVED","ASTDT":"2014-02-23","AENDT":"2014-02-23","ASTDY":17,"AENDY":17,"TRTEMFL":"Y","AOCC01FL":"Y","AOCCFL":null,"TRTP":"Xanomeline High Dose","TRT01P":"Xanomeline High Dose","TRT01PN":null,"TRT01A":"Xanomeline High Dose","SITEGR1":900,"SAFFL":"Y"},{"STUDYID":"CDISCPILOT01","USUBJID":"01-701-1275","AESEQ":3,"AETERM":"ERYTHEMA","AEDECOD":"ERYTHEMA","AESOC":"SKIN AND SUBCUTANEOUS TISSUE DISORDERS","AESOCCD":null,"ASEV":"MILD","ASEVN":1,"AESER":"N","AREL":"POSSIBLE","AEACN":"","AEOUT":"NOT RECOVERED/NOT RESOLVED","ASTDT":"2014-02-24","AENDT":"2014-06-12","ASTDY":18,"AENDY":126,"TRTEMFL":"Y","AOCC01FL":"Y","AOCCFL":null,"TRTP":"Xanomeline High Dose","TRT01P":"Xanomeline High Dose","TRT01PN":null,"TRT01A":"Xanomeline High Dose","SITEGR1":900,"SAFFL":"Y"},{"STUDYID":"CDISCPILOT01","USUBJID":"01-701-1275","AESEQ":4,"AETERM":"SALIVARY HYPERSECRETION","AEDECOD":"SALIVARY HYPERSECRETION","AESOC":"GASTROINTESTINAL DISORDERS","AESOCCD":null,"ASEV":"MILD","ASEVN":1,"AESER":"N","AREL":"POSSIBLE","AEACN":"","AEOUT":"NOT RECOVERED/NOT RESOLVED","ASTDT":"2014-02-24","AENDT":"2014-06-03","ASTDY":18,"AENDY":117,"TRTEMFL":"Y","AOCC01FL":"Y","AOCCFL":null,"TRTP":"Xanomeline High Dose","TRT01P":"Xanomeline High Dose","TRT01PN":null,"TRT01A":"Xanomeline High Dose","SITEGR1":900,"SAFFL":"Y"},{"STUDYID":"CDISCPILOT01","USUBJID":"01-701-1275","AESEQ":5,"AETERM":"PAROSMIA","AEDECOD":"PAROSMIA","AESOC":"NERVOUS SYSTEM DISORDERS","AESOCCD":null,"ASEV":"MILD","ASEVN":1,"AESER":"N","AREL":"POSSIBLE","AEACN":"","AEOUT":"NOT RECOVERED/NOT RESOLVED","ASTDT":"2014-02-24","AENDT":"2014-06-03","ASTDY":18,"AENDY":117,"TRTEMFL":"Y","AOCC01FL":"Y","AOCCFL":null,"TRTP":"Xanomeline High Dose","TRT01P":"Xanomeline High Dose","TRT01PN":null,"TRT01A":"Xanomeline High Dose","SITEGR1":900,"SAFFL":"Y"},{"STUDYID":"CDISCPILOT01","USUBJID":"01-701-1275","AESEQ":6,"AETERM":"PRURITUS","AEDECOD":"PRURITUS","AESOC":"SKIN AND SUBCUTANEOUS TISSUE DISORDERS","AESOCCD":null,"ASEV":"MILD","ASEVN":1,"AESER":"N","AREL":"POSSIBLE","AEACN":"","AEOUT":"NOT RECOVERED/NOT RESOLVED","ASTDT":"2014-02-24","AENDT":"2014-06-12","ASTDY":18,"AENDY":126,"TRTEMFL":"Y","AOCC01FL":"Y","AOCCFL":null,"TRTP":"Xanomeline High Dose","TRT01P":"Xanomeline High Dose","TRT01PN":null,"TRT01A":"Xanomeline High Dose","SITEGR1":900,"SAFFL":"Y"},{"STUDYID":"CDISCPILOT01","USUBJID":"01-701-1275","AESEQ":12,"AETERM":"ERYTHEMA","AEDECOD":"ERYTHEMA","AESOC":"SKIN AND SUBCUTANEOUS TISSUE DISORDERS","AESOCCD":null,"ASEV":"MILD","ASEVN":1,"AESER":"N","AREL":"POSSIBLE","AEACN":"","AEOUT":"RECOVERED/RESOLVED","ASTDT":"2014-02-24","AENDT":"2014-06-12","ASTDY":18,"AENDY":126,"TRTEMFL":"Y","AOCC01FL":null,"AOCCFL":null,"TRTP":"Xanomeline High Dose","TRT01P":"Xanomeline High Dose","TRT01PN":null,"TRT01A":"Xanomeline High Dose","SITEGR1":900,"SAFFL":"Y"},{"STUDYID":"CDISCPILOT01","USUBJID":"01-701-1275","AESEQ":13,"AETERM":"SALIVARY HYPERSECRETION","AEDECOD":"SALIVARY HYPERSECRETION","AESOC":"GASTROINTESTINAL DISORDERS","AESOCCD":null,"ASEV":"MILD","ASEVN":1,"AESER":"N","AREL":"POSSIBLE","AEACN":"","AEOUT":"RECOVERED/RESOLVED","ASTDT":"2014-02-24","AENDT":"2014-06-03","ASTDY":18,"AENDY":117,"TRTEMFL":"Y","AOCC01FL":null,"AOCCFL":null,"TRTP":"Xanomeline High Dose","TRT01P":"Xanomeline High Dose","TRT01PN":null,"TRT01A":"Xanomeline High Dose","SITEGR1":900,"SAFFL":"Y"},{"STUDYID":"CDISCPILOT01","USUBJID":"01-701-1275","AESEQ":14,"AETERM":"PAROSMIA","AEDECOD":"PAROSMIA","AESOC":"NERVOUS SYSTEM DISORDERS","AESOCCD":null,"ASEV":"MILD","ASEVN":1,"AESER":"N","AREL":"POSSIBLE","AEACN":"","AEOUT":"RECOVERED/RESOLVED","ASTDT":"2014-02-24","AENDT":"2014-06-03","ASTDY":18,"AENDY":117,"TRTEMFL":"Y","AOCC01FL":null,"AOCCFL":null,"TRTP":"Xanomeline High Dose","TRT01P":"Xanomeline High Dose","TRT01PN":null,"TRT01A":"Xanomeline High Dose","SITEGR1":900,"SAFFL":"Y"},{"STUDYID":"CDISCPILOT01","USUBJID":"01-701-1275","AESEQ":15,"AETERM":"PRURITUS","AEDECOD":"PRURITUS","AESOC":"SKIN AND SUBCUTANEOUS TISSUE DISORDERS","AESOCCD":null,"ASEV":"MILD","ASEVN":1,"AESER":"N","AREL":"POSSIBLE","AEACN":"","AEOUT":"RECOVERED/RESOLVED","ASTDT":"2014-02-24","AENDT":"2014-06-12","ASTDY":18,"AENDY":126,"TRTEMFL":"Y","AOCC01FL":null,"AOCCFL":null,"TRTP":"Xanomeline High Dose","TRT01P":"Xanomeline High Dose","TRT01PN":null,"TRT01A":"Xanomeline High Dose","SITEGR1":900,"SAFFL":"Y"},{"STUDYID":"CDISCPILOT01","USUBJID":"01-701-1275","AESEQ":7,"AETERM":"COUGH","AEDECOD":"COUGH","AESOC":"RESPIRATORY, THORACIC AND MEDIASTINAL DISORDERS","AESOCCD":null,"ASEV":"MILD","ASEVN":1,"AESER":"N","AREL":"NONE","AEACN":"","AEOUT":"NOT RECOVERED/NOT RESOLVED","ASTDT":"2014-03-12","AENDT":"2014-03-27","ASTDY":34,"AENDY":49,"TRTEMFL":"Y","AOCC01FL":"Y","AOCCFL":null,"TRTP":"Xanomeline High Dose","TRT01P":"Xanomeline High Dose","TRT01PN":null,"TRT01A":"Xanomeline High Dose","SITEGR1":900,"SAFFL":"Y"},{"STUDYID":"CDISCPILOT01","USUBJID":"01-701-1275","AESEQ":8,"AETERM":"NASAL CONGESTION","AEDECOD":"NASAL CONGESTION","AESOC":"RESPIRATORY, THORACIC AND MEDIASTINAL DISORDERS","AESOCCD":null,"ASEV":"MILD","ASEVN":1,"AESER":"N","AREL":"NONE","AEACN":"","AEOUT":"NOT RECOVERED/NOT RESOLVED","ASTDT":"2014-03-12","AENDT":"2014-03-27","ASTDY":34,"AENDY":49,"TRTEMFL":"Y","AOCC01FL":"Y","AOCCFL":null,"TRTP":"Xanomeline High Dose","TRT01P":"Xanomeline High Dose","TRT01PN":null,"TRT01A":"Xanomeline High Dose","SITEGR1":900,"SAFFL":"Y"},{"STUDYID":"CDISCPILOT01","USUBJID":"01-701-1275","AESEQ":9,"AETERM":"COUGH","AEDECOD":"COUGH","AESOC":"RESPIRATORY, THORACIC AND MEDIASTINAL DISORDERS","AESOCCD":null,"ASEV":"MILD","ASEVN":1,"AESER":"N","AREL":"NONE","AEACN":"","AEOUT":"RECOVERED/RESOLVED","ASTDT":"2014-03-12","AENDT":"2014-03-27","ASTDY":34,"AENDY":49,"TRTEMFL":"Y","AOCC01FL":null,"AOCCFL":null,"TRTP":"Xanomeline High Dose","TRT01P":"Xanomeline High Dose","TRT01PN":null,"TRT01A":"Xanomeline High Dose","SITEGR1":900,"SAFFL":"Y"},{"STUDYID":"CDISCPILOT01","USUBJID":"01-701-1275","AESEQ":10,"AETERM":"NASAL CONGESTION","AEDECOD":"NASAL CONGESTION","AESOC":"RESPIRATORY, THORACIC AND MEDIASTINAL DISORDERS","AESOCCD":null,"ASEV":"MILD","ASEVN":1,"AESER":"N","AREL":"NONE","AEACN":"","AEOUT":"RECOVERED/RESOLVED","ASTDT":"2014-03-12","AENDT":"2014-03-27","ASTDY":34,"AENDY":49,"TRTEMFL":"Y","AOCC01FL":null,"AOCCFL":null,"TRTP":"Xanomeline High Dose","TRT01P":"Xanomeline High Dose","TRT01PN":null,"TRT01A":"Xanomeline High Dose","SITEGR1":900,"SAFFL":"Y"},{"STUDYID":"CDISCPILOT01","USUBJID":"01-701-1287","AESEQ":1,"AETERM":"SALIVARY HYPERSECRETION","AEDECOD":"SALIVARY HYPERSECRETION","AESOC":"GASTROINTESTINAL DISORDERS","AESOCCD":null,"ASEV":"MILD","ASEVN":1,"AESER":"N","AREL":"NONE","AEACN":"","AEOUT":"NOT RECOVERED/NOT RESOLVED","ASTDT":"2014-01-26","AENDT":null,"ASTDY":2,"AENDY":null,"TRTEMFL":"Y","AOCC01FL":"Y","AOCCFL":"Y","TRTP":"Xanomeline High Dose","TRT01P":"Xanomeline High Dose","TRT01PN":null,"TRT01A":"Xanomeline High Dose","SITEGR1":900,"SAFFL":"Y"},{"STUDYID":"CDISCPILOT01","USUBJID":"01-701-1287","AESEQ":2,"AETERM":"APPLICATION SITE PRURITUS","AEDECOD":"APPLICATION SITE PRURITUS","AESOC":"GENERAL DISORDERS AND ADMINISTRATION SITE CONDITIONS","AESOCCD":null,"ASEV":"MILD","ASEVN":1,"AESER":"N","AREL":"POSSIBLE","AEACN":"","AEOUT":"NOT RECOVERED/NOT RESOLVED","ASTDT":"2014-02-22","AENDT":null,"ASTDY":29,"AENDY":null,"TRTEMFL":"Y","AOCC01FL":"Y","AOCCFL":null,"TRTP":"Xanomeline High Dose","TRT01P":"Xanomeline High Dose","TRT01PN":null,"TRT01A":"Xanomeline High Dose","SITEGR1":900,"SAFFL":"Y"},{"STUDYID":"CDISCPILOT01","USUBJID":"01-701-1287","AESEQ":3,"AETERM":"APPLICATION SITE ERYTHEMA","AEDECOD":"APPLICATION SITE ERYTHEMA","AESOC":"GENERAL DISORDERS AND ADMINISTRATION SITE CONDITIONS","AESOCCD":null,"ASEV":"MILD","ASEVN":1,"AESER":"N","AREL":"PROBABLE","AEACN":"","AEOUT":"NOT RECOVERED/NOT RESOLVED","ASTDT":"2014-03-09","AENDT":null,"ASTDY":44,"AENDY":null,"TRTEMFL":"Y","AOCC01FL":"Y","AOCCFL":null,"TRTP":"Xanomeline High Dose","TRT01P":"Xanomeline High Dose","TRT01PN":null,"TRT01A":"Xanomeline High Dose","SITEGR1":900,"SAFFL":"Y"},{"STUDYID":"CDISCPILOT01","USUBJID":"01-701-1287","AESEQ":4,"AETERM":"RHINORRHOEA","AEDECOD":"RHINORRHOEA","AESOC":"RESPIRATORY, THORACIC AND MEDIASTINAL DISORDERS","AESOCCD":null,"ASEV":"MILD","ASEVN":1,"AESER":"N","AREL":"NONE","AEACN":"","AEOUT":"NOT RECOVERED/NOT RESOLVED","ASTDT":"2014-07-09","AENDT":"2014-07-12","ASTDY":166,"AENDY":169,"TRTEMFL":"Y","AOCC01FL":"Y","AOCCFL":null,"TRTP":"Xanomeline High Dose","TRT01P":"Xanomeline High Dose","TRT01PN":null,"TRT01A":"Xanomeline High Dose","SITEGR1":900,"SAFFL":"Y"},{"STUDYID":"CDISCPILOT01","USUBJID":"01-701-1287","AESEQ":5,"AETERM":"RHINORRHOEA","AEDECOD":"RHINORRHOEA","AESOC":"RESPIRATORY, THORACIC AND MEDIASTINAL DISORDERS","AESOCCD":null,"ASEV":"MILD","ASEVN":1,"AESER":"N","AREL":"NONE","AEACN":"","AEOUT":"RECOVERED/RESOLVED","ASTDT":"2014-07-09","AENDT":"2014-07-12","ASTDY":166,"AENDY":169,"TRTEMFL":"Y","AOCC01FL":null,"AOCCFL":null,"TRTP":"Xanomeline High Dose","TRT01P":"Xanomeline High Dose","TRT01PN":null,"TRT01A":"Xanomeline High Dose","SITEGR1":900,"SAFFL":"Y"},{"STUDYID":"CDISCPILOT01","USUBJID":"01-701-1294","AESEQ":1,"AETERM":"APPLICATION SITE PRURITUS","AEDECOD":"APPLICATION SITE PRURITUS","AESOC":"GENERAL DISORDERS AND ADMINISTRATION SITE CONDITIONS","AESOCCD":null,"ASEV":"MODERATE","ASEVN":2,"AESER":"N","AREL":"NONE","AEACN":"","AEOUT":"RECOVERED/RESOLVED","ASTDT":"2013-03-22","AENDT":"2013-03-23","ASTDY":-2,"AENDY":-1,"TRTEMFL":"N","AOCC01FL":null,"AOCCFL":null,"TRTP":"Xanomeline Low Dose","TRT01P":"Xanomeline Low Dose","TRT01PN":null,"TRT01A":"Xanomeline Low Dose","SITEGR1":900,"SAFFL":"Y"},{"STUDYID":"CDISCPILOT01","USUBJID":"01-701-1294","AESEQ":2,"AETERM":"APPLICATION SITE PRURITUS","AEDECOD":"APPLICATION SITE PRURITUS","AESOC":"GENERAL DISORDERS AND ADMINISTRATION SITE CONDITIONS","AESOCCD":null,"ASEV":"MILD","ASEVN":1,"AESER":"N","AREL":"POSSIBLE","AEACN":"","AEOUT":"NOT RECOVERED/NOT RESOLVED","ASTDT":"2013-05-19","AENDT":null,"ASTDY":57,"AENDY":null,"TRTEMFL":"Y","AOCC01FL":null,"AOCCFL":null,"TRTP":"Xanomeline Low Dose","TRT01P":"Xanomeline Low Dose","TRT01PN":null,"TRT01A":"Xanomeline Low Dose","SITEGR1":900,"SAFFL":"Y"},{"STUDYID":"CDISCPILOT01","USUBJID":"01-701-1294","AESEQ":3,"AETERM":"APPLICATION SITE ERYTHEMA","AEDECOD":"APPLICATION SITE ERYTHEMA","AESOC":"GENERAL DISORDERS AND ADMINISTRATION SITE CONDITIONS","AESOCCD":null,"ASEV":"MILD","ASEVN":1,"AESER":"N","AREL":"PROBABLE","AEACN":"","AEOUT":"NOT RECOVERED/NOT RESOLVED","ASTDT":"2013-05-19","AENDT":null,"ASTDY":57,"AENDY":null,"TRTEMFL":"Y","AOCC01FL":null,"AOCCFL":null,"TRTP":"Xanomeline Low Dose","TRT01P":"Xanomeline Low Dose","TRT01PN":null,"TRT01A":"Xanomeline Low Dose","SITEGR1":900,"SAFFL":"Y"},{"STUDYID":"CDISCPILOT01","USUBJID":"01-701-1294","AESEQ":4,"AETERM":"APPLICATION SITE PRURITUS","AEDECOD":"APPLICATION SITE PRURITUS","AESOC":"GENERAL DISORDERS AND ADMINISTRATION SITE CONDITIONS","AESOCCD":null,"ASEV":"MODERATE","ASEVN":2,"AESER":"N","AREL":"POSSIBLE","AEACN":"","AEOUT":"NOT RECOVERED/NOT RESOLVED","ASTDT":"2013-05-19","AENDT":null,"ASTDY":57,"AENDY":null,"TRTEMFL":"Y","AOCC01FL":null,"AOCCFL":null,"TRTP":"Xanomeline Low Dose","TRT01P":"Xanomeline Low Dose","TRT01PN":null,"TRT01A":"Xanomeline Low Dose","SITEGR1":900,"SAFFL":"Y"},{"STUDYID":"CDISCPILOT01","USUBJID":"01-701-1294","AESEQ":5,"AETERM":"APPLICATION SITE ERYTHEMA","AEDECOD":"APPLICATION SITE ERYTHEMA","AESOC":"GENERAL DISORDERS AND ADMINISTRATION SITE CONDITIONS","AESOCCD":null,"ASEV":"MODERATE","ASEVN":2,"AESER":"N","AREL":"PROBABLE","AEACN":"","AEOUT":"NOT RECOVERED/NOT RESOLVED","ASTDT":"2013-05-19","AENDT":null,"ASTDY":57,"AENDY":null,"TRTEMFL":"Y","AOCC01FL":"Y","AOCCFL":null,"TRTP":"Xanomeline Low Dose","TRT01P":"Xanomeline Low Dose","TRT01PN":null,"TRT01A":"Xanomeline Low Dose","SITEGR1":900,"SAFFL":"Y"},{"STUDYID":"CDISCPILOT01","USUBJID":"01-701-1294","AESEQ":6,"AETERM":"RASH ERYTHEMATOUS","AEDECOD":"RASH ERYTHEMATOUS","AESOC":"SKIN AND SUBCUTANEOUS TISSUE DISORDERS","AESOCCD":null,"ASEV":"MODERATE","ASEVN":2,"AESER":"N","AREL":"PROBABLE","AEACN":"","AEOUT":"NOT RECOVERED/NOT RESOLVED","ASTDT":"2013-06-10","AENDT":null,"ASTDY":79,"AENDY":null,"TRTEMFL":"Y","AOCC01FL":"Y","AOCCFL":null,"TRTP":"Xanomeline Low Dose","TRT01P":"Xanomeline Low Dose","TRT01PN":null,"TRT01A":"Xanomeline Low Dose","SITEGR1":900,"SAFFL":"Y"},{"STUDYID":"CDISCPILOT01","USUBJID":"01-701-1302","AESEQ":1,"AETERM":"APPLICATION SITE PERSPIRATION","AEDECOD":"APPLICATION SITE PERSPIRATION","AESOC":"GENERAL DISORDERS AND ADMINISTRATION SITE CONDITIONS","AESOCCD":null,"ASEV":"MILD","ASEVN":1,"AESER":"N","AREL":"POSSIBLE","AEACN":"","AEOUT":"NOT RECOVERED/NOT RESOLVED","ASTDT":"2013-08-30","AENDT":null,"ASTDY":2,"AENDY":null,"TRTEMFL":"Y","AOCC01FL":"Y","AOCCFL":"Y","TRTP":"Xanomeline High Dose","TRT01P":"Xanomeline High Dose","TRT01PN":null,"TRT01A":"Xanomeline High Dose","SITEGR1":900,"SAFFL":"Y"},{"STUDYID":"CDISCPILOT01","USUBJID":"01-701-1302","AESEQ":2,"AETERM":"HYPERHIDROSIS","AEDECOD":"HYPERHIDROSIS","AESOC":"SKIN AND SUBCUTANEOUS TISSUE DISORDERS","AESOCCD":null,"ASEV":"MILD","ASEVN":1,"AESER":"N","AREL":"POSSIBLE","AEACN":"","AEOUT":"NOT RECOVERED/NOT RESOLVED","ASTDT":"2013-08-30","AENDT":null,"ASTDY":2,"AENDY":null,"TRTEMFL":"Y","AOCC01FL":"Y","AOCCFL":null,"TRTP":"Xanomeline High Dose","TRT01P":"Xanomeline High Dose","TRT01PN":null,"TRT01A":"Xanomeline High Dose","SITEGR1":900,"SAFFL":"Y"},{"STUDYID":"CDISCPILOT01","USUBJID":"01-701-1302","AESEQ":3,"AETERM":"STOMACH DISCOMFORT","AEDECOD":"STOMACH DISCOMFORT","AESOC":"GASTROINTESTINAL DISORDERS","AESOCCD":null,"ASEV":"MILD","ASEVN":1,"AESER":"N","AREL":"POSSIBLE","AEACN":"","AEOUT":"NOT RECOVERED/NOT RESOLVED","ASTDT":"2013-08-30","AENDT":null,"ASTDY":2,"AENDY":null,"TRTEMFL":"Y","AOCC01FL":"Y","AOCCFL":null,"TRTP":"Xanomeline High Dose","TRT01P":"Xanomeline High Dose","TRT01PN":null,"TRT01A":"Xanomeline High Dose","SITEGR1":900,"SAFFL":"Y"},{"STUDYID":"CDISCPILOT01","USUBJID":"01-701-1302","AESEQ":4,"AETERM":"PAIN","AEDECOD":"PAIN","AESOC":"GENERAL DISORDERS AND ADMINISTRATION SITE CONDITIONS","AESOCCD":null,"ASEV":"MILD","ASEVN":1,"AESER":"N","AREL":"POSSIBLE","AEACN":"","AEOUT":"NOT RECOVERED/NOT RESOLVED","ASTDT":"2013-08-31","AENDT":null,"ASTDY":3,"AENDY":null,"TRTEMFL":"Y","AOCC01FL":"Y","AOCCFL":null,"TRTP":"Xanomeline High Dose","TRT01P":"Xanomeline High Dose","TRT01PN":null,"TRT01A":"Xanomeline High Dose","SITEGR1":900,"SAFFL":"Y"},{"STUDYID":"CDISCPILOT01","USUBJID":"01-701-1302","AESEQ":5,"AETERM":"NASAL CONGESTION","AEDECOD":"NASAL CONGESTION","AESOC":"RESPIRATORY, THORACIC AND MEDIASTINAL DISORDERS","AESOCCD":null,"ASEV":"MILD","ASEVN":1,"AESER":"N","AREL":"NONE","AEACN":"","AEOUT":"NOT RECOVERED/NOT RESOLVED","ASTDT":"2013-09-01","AENDT":null,"ASTDY":4,"AENDY":null,"TRTEMFL":"Y","AOCC01FL":"Y","AOCCFL":null,"TRTP":"Xanomeline High Dose","TRT01P":"Xanomeline High Dose","TRT01PN":null,"TRT01A":"Xanomeline High Dose","SITEGR1":900,"SAFFL":"Y"},{"STUDYID":"CDISCPILOT01","USUBJID":"01-701-1302","AESEQ":6,"AETERM":"PHARYNGOLARYNGEAL PAIN","AEDECOD":"PHARYNGOLARYNGEAL PAIN","AESOC":"RESPIRATORY, THORACIC AND MEDIASTINAL DISORDERS","AESOCCD":null,"ASEV":"MILD","ASEVN":1,"AESER":"N","AREL":"NONE","AEACN":"","AEOUT":"NOT RECOVERED/NOT RESOLVED","ASTDT":"2013-09-02","AENDT":null,"ASTDY":5,"AENDY":null,"TRTEMFL":"Y","AOCC01FL":"Y","AOCCFL":null,"TRTP":"Xanomeline High Dose","TRT01P":"Xanomeline High Dose","TRT01PN":null,"TRT01A":"Xanomeline High Dose","SITEGR1":900,"SAFFL":"Y"},{"STUDYID":"CDISCPILOT01","USUBJID":"01-701-1302","AESEQ":7,"AETERM":"PRODUCTIVE COUGH","AEDECOD":"PRODUCTIVE COUGH","AESOC":"RESPIRATORY, THORACIC AND MEDIASTINAL DISORDERS","AESOCCD":null,"ASEV":"MILD","ASEVN":1,"AESER":"N","AREL":"NONE","AEACN":"","AEOUT":"NOT RECOVERED/NOT RESOLVED","ASTDT":"2013-09-02","AENDT":null,"ASTDY":5,"AENDY":null,"TRTEMFL":"Y","AOCC01FL":"Y","AOCCFL":null,"TRTP":"Xanomeline High Dose","TRT01P":"Xanomeline High Dose","TRT01PN":null,"TRT01A":"Xanomeline High Dose","SITEGR1":900,"SAFFL":"Y"},{"STUDYID":"CDISCPILOT01","USUBJID":"01-701-1302","AESEQ":8,"AETERM":"MALAISE","AEDECOD":"MALAISE","AESOC":"GENERAL DISORDERS AND ADMINISTRATION SITE CONDITIONS","AESOCCD":null,"ASEV":"MILD","ASEVN":1,"AESER":"N","AREL":"REMOTE","AEACN":"","AEOUT":"NOT RECOVERED/NOT RESOLVED","ASTDT":"2013-09-02","AENDT":null,"ASTDY":5,"AENDY":null,"TRTEMFL":"Y","AOCC01FL":null,"AOCCFL":null,"TRTP":"Xanomeline High Dose","TRT01P":"Xanomeline High Dose","TRT01PN":null,"TRT01A":"Xanomeline High Dose","SITEGR1":900,"SAFFL":"Y"},{"STUDYID":"CDISCPILOT01","USUBJID":"01-701-1302","AESEQ":9,"AETERM":"DIZZINESS","AEDECOD":"DIZZINESS","AESOC":"NERVOUS SYSTEM DISORDERS","AESOCCD":null,"ASEV":"MODERATE","ASEVN":2,"AESER":"N","AREL":"REMOTE","AEACN":"","AEOUT":"RECOVERED/RESOLVED","ASTDT":"2013-09-02","AENDT":"2013-09-03","ASTDY":5,"AENDY":6,"TRTEMFL":"Y","AOCC01FL":"Y","AOCCFL":null,"TRTP":"Xanomeline High Dose","TRT01P":"Xanomeline High Dose","TRT01PN":null,"TRT01A":"Xanomeline High Dose","SITEGR1":900,"SAFFL":"Y"},{"STUDYID":"CDISCPILOT01","USUBJID":"01-701-1302","AESEQ":10,"AETERM":"MYALGIA","AEDECOD":"MYALGIA","AESOC":"MUSCULOSKELETAL AND CONNECTIVE TISSUE DISORDERS","AESOCCD":null,"ASEV":"MILD","ASEVN":1,"AESER":"N","AREL":"POSSIBLE","AEACN":"","AEOUT":"NOT RECOVERED/NOT RESOLVED","ASTDT":"2013-09-02","AENDT":null,"ASTDY":5,"AENDY":null,"TRTEMFL":"Y","AOCC01FL":"Y","AOCCFL":null,"TRTP":"Xanomeline High Dose","TRT01P":"Xanomeline High Dose","TRT01PN":null,"TRT01A":"Xanomeline High Dose","SITEGR1":900,"SAFFL":"Y"},{"STUDYID":"CDISCPILOT01","USUBJID":"01-701-1302","AESEQ":18,"AETERM":"MALAISE","AEDECOD":"MALAISE","AESOC":"GENERAL DISORDERS AND ADMINISTRATION SITE CONDITIONS","AESOCCD":null,"ASEV":"MODERATE","ASEVN":2,"AESER":"N","AREL":"REMOTE","AEACN":"","AEOUT":"NOT RECOVERED/NOT RESOLVED","ASTDT":"2013-09-02","AENDT":null,"ASTDY":5,"AENDY":null,"TRTEMFL":"Y","AOCC01FL":"Y","AOCCFL":null,"TRTP":"Xanomeline High Dose","TRT01P":"Xanomeline High Dose","TRT01PN":null,"TRT01A":"Xanomeline High Dose","SITEGR1":900,"SAFFL":"Y"},{"STUDYID":"CDISCPILOT01","USUBJID":"01-701-1302","AESEQ":11,"AETERM":"DIZZINESS","AEDECOD":"DIZZINESS","AESOC":"NERVOUS SYSTEM DISORDERS","AESOCCD":null,"ASEV":"MILD","ASEVN":1,"AESER":"N","AREL":"POSSIBLE","AEACN":"","AEOUT":"NOT RECOVERED/NOT RESOLVED","ASTDT":"2013-09-04","AENDT":null,"ASTDY":7,"AENDY":null,"TRTEMFL":"Y","AOCC01FL":null,"AOCCFL":null,"TRTP":"Xanomeline High Dose","TRT01P":"Xanomeline High Dose","TRT01PN":null,"TRT01A":"Xanomeline High Dose","SITEGR1":900,"SAFFL":"Y"},{"STUDYID":"CDISCPILOT01","USUBJID":"01-701-1302","AESEQ":12,"AETERM":"CONTUSION","AEDECOD":"CONTUSION","AESOC":"INJURY, POISONING AND PROCEDURAL COMPLICATIONS","AESOCCD":null,"ASEV":"MILD","ASEVN":1,"AESER":"N","AREL":"REMOTE","AEACN":"","AEOUT":"NOT RECOVERED/NOT RESOLVED","ASTDT":"2013-09-05","AENDT":"2013-10-08","ASTDY":8,"AENDY":41,"TRTEMFL":"Y","AOCC01FL":"Y","AOCCFL":null,"TRTP":"Xanomeline High Dose","TRT01P":"Xanomeline High Dose","TRT01PN":null,"TRT01A":"Xanomeline High Dose","SITEGR1":900,"SAFFL":"Y"},{"STUDYID":"CDISCPILOT01","USUBJID":"01-701-1302","AESEQ":15,"AETERM":"CONTUSION","AEDECOD":"CONTUSION","AESOC":"INJURY, POISONING AND PROCEDURAL COMPLICATIONS","AESOCCD":null,"ASEV":"MILD","ASEVN":1,"AESER":"N","AREL":"REMOTE","AEACN":"","AEOUT":"RECOVERED/RESOLVED","ASTDT":"2013-09-05","AENDT":"2013-10-08","ASTDY":8,"AENDY":41,"TRTEMFL":"Y","AOCC01FL":null,"AOCCFL":null,"TRTP":"Xanomeline High Dose","TRT01P":"Xanomeline High Dose","TRT01PN":null,"TRT01A":"Xanomeline High Dose","SITEGR1":900,"SAFFL":"Y"},{"STUDYID":"CDISCPILOT01","USUBJID":"01-701-1302","AESEQ":13,"AETERM":"HEADACHE","AEDECOD":"HEADACHE","AESOC":"NERVOUS SYSTEM DISORDERS","AESOCCD":null,"ASEV":"MILD","ASEVN":1,"AESER":"N","AREL":"NONE","AEACN":"","AEOUT":"NOT RECOVERED/NOT RESOLVED","ASTDT":"2013-09-15","AENDT":null,"ASTDY":18,"AENDY":null,"TRTEMFL":"Y","AOCC01FL":"Y","AOCCFL":null,"TRTP":"Xanomeline High Dose","TRT01P":"Xanomeline High Dose","TRT01PN":null,"TRT01A":"Xanomeline High Dose","SITEGR1":900,"SAFFL":"Y"},{"STUDYID":"CDISCPILOT01","USUBJID":"01-701-1302","AESEQ":14,"AETERM":"EPISTAXIS","AEDECOD":"EPISTAXIS","AESOC":"RESPIRATORY, THORACIC AND MEDIASTINAL DISORDERS","AESOCCD":null,"ASEV":"MILD","ASEVN":1,"AESER":"N","AREL":"REMOTE","AEACN":"","AEOUT":"NOT RECOVERED/NOT RESOLVED","ASTDT":"2013-09-30","AENDT":null,"ASTDY":33,"AENDY":null,"TRTEMFL":"Y","AOCC01FL":"Y","AOCCFL":null,"TRTP":"Xanomeline High Dose","TRT01P":"Xanomeline High Dose","TRT01PN":null,"TRT01A":"Xanomeline High Dose","SITEGR1":900,"SAFFL":"Y"},{"STUDYID":"CDISCPILOT01","USUBJID":"01-701-1302","AESEQ":16,"AETERM":"APPLICATION SITE ERYTHEMA","AEDECOD":"APPLICATION SITE ERYTHEMA","AESOC":"GENERAL DISORDERS AND ADMINISTRATION SITE CONDITIONS","AESOCCD":null,"ASEV":"MILD","ASEVN":1,"AESER":"N","AREL":"PROBABLE","AEACN":"","AEOUT":"NOT RECOVERED/NOT RESOLVED","ASTDT":"2013-10-15","AENDT":null,"ASTDY":48,"AENDY":null,"TRTEMFL":"Y","AOCC01FL":"Y","AOCCFL":null,"TRTP":"Xanomeline High Dose","TRT01P":"Xanomeline High Dose","TRT01PN":null,"TRT01A":"Xanomeline High Dose","SITEGR1":900,"SAFFL":"Y"},{"STUDYID":"CDISCPILOT01","USUBJID":"01-701-1302","AESEQ":17,"AETERM":"APPLICATION SITE PRURITUS","AEDECOD":"APPLICATION SITE PRURITUS","AESOC":"GENERAL DISORDERS AND ADMINISTRATION SITE CONDITIONS","AESOCCD":null,"ASEV":"MILD","ASEVN":1,"AESER":"N","AREL":"PROBABLE","AEACN":"","AEOUT":"NOT RECOVERED/NOT RESOLVED","ASTDT":"2013-10-15","AENDT":null,"ASTDY":48,"AENDY":null,"TRTEMFL":"Y","AOCC01FL":"Y","AOCCFL":null,"TRTP":"Xanomeline High Dose","TRT01P":"Xanomeline High Dose","TRT01PN":null,"TRT01A":"Xanomeline High Dose","SITEGR1":900,"SAFFL":"Y"},{"STUDYID":"CDISCPILOT01","USUBJID":"01-701-1302","AESEQ":19,"AETERM":"RESPIRATORY TRACT CONGESTION","AEDECOD":"RESPIRATORY TRACT CONGESTION","AESOC":"RESPIRATORY, THORACIC AND MEDIASTINAL DISORDERS","AESOCCD":null,"ASEV":"MILD","ASEVN":1,"AESER":"N","AREL":"NONE","AEACN":"","AEOUT":"NOT RECOVERED/NOT RESOLVED","ASTDT":"2013-10-23","AENDT":null,"ASTDY":56,"AENDY":null,"TRTEMFL":"Y","AOCC01FL":"Y","AOCCFL":null,"TRTP":"Xanomeline High Dose","TRT01P":"Xanomeline High Dose","TRT01PN":null,"TRT01A":"Xanomeline High Dose","SITEGR1":900,"SAFFL":"Y"},{"STUDYID":"CDISCPILOT01","USUBJID":"01-701-1302","AESEQ":20,"AETERM":"RHINITIS","AEDECOD":"RHINITIS","AESOC":"INFECTIONS AND INFESTATIONS","AESOCCD":null,"ASEV":"MILD","ASEVN":1,"AESER":"N","AREL":"NONE","AEACN":"","AEOUT":"NOT RECOVERED/NOT RESOLVED","ASTDT":"2013-10-23","AENDT":null,"ASTDY":56,"AENDY":null,"TRTEMFL":"Y","AOCC01FL":"Y","AOCCFL":null,"TRTP":"Xanomeline High Dose","TRT01P":"Xanomeline High Dose","TRT01PN":null,"TRT01A":"Xanomeline High Dose","SITEGR1":900,"SAFFL":"Y"},{"STUDYID":"CDISCPILOT01","USUBJID":"01-701-1302","AESEQ":21,"AETERM":"FEELING ABNORMAL","AEDECOD":"FEELING ABNORMAL","AESOC":"GENERAL DISORDERS AND ADMINISTRATION SITE CONDITIONS","AESOCCD":null,"ASEV":"MILD","ASEVN":1,"AESER":"N","AREL":"POSSIBLE","AEACN":"","AEOUT":"NOT RECOVERED/NOT RESOLVED","ASTDT":"2013-10-24","AENDT":null,"ASTDY":57,"AENDY":null,"TRTEMFL":"Y","AOCC01FL":"Y","AOCCFL":null,"TRTP":"Xanomeline High Dose","TRT01P":"Xanomeline High Dose","TRT01PN":null,"TRT01A":"Xanomeline High Dose","SITEGR1":900,"SAFFL":"Y"},{"STUDYID":"CDISCPILOT01","USUBJID":"01-701-1302","AESEQ":22,"AETERM":"LISTLESS","AEDECOD":"LISTLESS","AESOC":"PSYCHIATRIC DISORDERS","AESOCCD":null,"ASEV":"MILD","ASEVN":1,"AESER":"N","AREL":"POSSIBLE","AEACN":"","AEOUT":"NOT RECOVERED/NOT RESOLVED","ASTDT":"2013-10-24","AENDT":null,"ASTDY":57,"AENDY":null,"TRTEMFL":"Y","AOCC01FL":"Y","AOCCFL":null,"TRTP":"Xanomeline High Dose","TRT01P":"Xanomeline High Dose","TRT01PN":null,"TRT01A":"Xanomeline High Dose","SITEGR1":900,"SAFFL":"Y"},{"STUDYID":"CDISCPILOT01","USUBJID":"01-701-1302","AESEQ":23,"AETERM":"LIBIDO DECREASED","AEDECOD":"LIBIDO DECREASED","AESOC":"PSYCHIATRIC DISORDERS","AESOCCD":null,"ASEV":"MILD","ASEVN":1,"AESER":"N","AREL":"POSSIBLE","AEACN":"","AEOUT":"NOT RECOVERED/NOT RESOLVED","ASTDT":"2013-10-24","AENDT":null,"ASTDY":57,"AENDY":null,"TRTEMFL":"Y","AOCC01FL":"Y","AOCCFL":null,"TRTP":"Xanomeline High Dose","TRT01P":"Xanomeline High Dose","TRT01PN":null,"TRT01A":"Xanomeline High Dose","SITEGR1":900,"SAFFL":"Y"},{"STUDYID":"CDISCPILOT01","USUBJID":"01-701-1317","AESEQ":1,"AETERM":"ONYCHOMYCOSIS","AEDECOD":"ONYCHOMYCOSIS","AESOC":"INFECTIONS AND INFESTATIONS","AESOCCD":null,"ASEV":"MILD","ASEVN":1,"AESER":"N","AREL":"NONE","AEACN":"","AEOUT":"NOT RECOVERED/NOT RESOLVED","ASTDT":"2014-05-13","AENDT":null,"ASTDY":-9,"AENDY":null,"TRTEMFL":"N","AOCC01FL":null,"AOCCFL":null,"TRTP":"Xanomeline Low Dose","TRT01P":"Xanomeline Low Dose","TRT01PN":null,"TRT01A":"Xanomeline Low Dose","SITEGR1":900,"SAFFL":"Y"},{"STUDYID":"CDISCPILOT01","USUBJID":"01-701-1317","AESEQ":2,"AETERM":"CYST","AEDECOD":"CYST","AESOC":"GENERAL DISORDERS AND ADMINISTRATION SITE CONDITIONS","AESOCCD":null,"ASEV":"MILD","ASEVN":1,"AESER":"N","AREL":"NONE","AEACN":"","AEOUT":"NOT RECOVERED/NOT RESOLVED","ASTDT":"2014-05-13","AENDT":null,"ASTDY":-9,"AENDY":null,"TRTEMFL":"N","AOCC01FL":null,"AOCCFL":null,"TRTP":"Xanomeline Low Dose","TRT01P":"Xanomeline Low Dose","TRT01PN":null,"TRT01A":"Xanomeline Low Dose","SITEGR1":900,"SAFFL":"Y"},{"STUDYID":"CDISCPILOT01","USUBJID":"01-701-1317","AESEQ":3,"AETERM":"APPLICATION SITE ERYTHEMA","AEDECOD":"APPLICATION SITE ERYTHEMA","AESOC":"GENERAL DISORDERS AND ADMINISTRATION SITE CONDITIONS","AESOCCD":null,"ASEV":"MILD","ASEVN":1,"AESER":"N","AREL":"POSSIBLE","AEACN":"","AEOUT":"NOT RECOVERED/NOT RESOLVED","ASTDT":"2014-06-23","AENDT":null,"ASTDY":33,"AENDY":null,"TRTEMFL":"Y","AOCC01FL":"Y","AOCCFL":null,"TRTP":"Xanomeline Low Dose","TRT01P":"Xanomeline Low Dose","TRT01PN":null,"TRT01A":"Xanomeline Low Dose","SITEGR1":900,"SAFFL":"Y"},{"STUDYID":"CDISCPILOT01","USUBJID":"01-701-1317","AESEQ":4,"AETERM":"APPLICATION SITE PRURITUS","AEDECOD":"APPLICATION SITE PRURITUS","AESOC":"GENERAL DISORDERS AND ADMINISTRATION SITE CONDITIONS","AESOCCD":null,"ASEV":"MILD","ASEVN":1,"AESER":"N","AREL":"POSSIBLE","AEACN":"","AEOUT":"NOT RECOVERED/NOT RESOLVED","ASTDT":"2014-06-23","AENDT":null,"ASTDY":33,"AENDY":null,"TRTEMFL":"Y","AOCC01FL":"Y","AOCCFL":null,"TRTP":"Xanomeline Low Dose","TRT01P":"Xanomeline Low Dose","TRT01PN":null,"TRT01A":"Xanomeline Low Dose","SITEGR1":900,"SAFFL":"Y"},{"STUDYID":"CDISCPILOT01","USUBJID":"01-701-1317","AESEQ":5,"AETERM":"APPLICATION SITE URTICARIA","AEDECOD":"APPLICATION SITE URTICARIA","AESOC":"GENERAL DISORDERS AND ADMINISTRATION SITE CONDITIONS","AESOCCD":null,"ASEV":"MILD","ASEVN":1,"AESER":"N","AREL":"POSSIBLE","AEACN":"","AEOUT":"NOT RECOVERED/NOT RESOLVED","ASTDT":"2014-06-23","AENDT":null,"ASTDY":33,"AENDY":null,"TRTEMFL":"Y","AOCC01FL":"Y","AOCCFL":null,"TRTP":"Xanomeline Low Dose","TRT01P":"Xanomeline Low Dose","TRT01PN":null,"TRT01A":"Xanomeline Low Dose","SITEGR1":900,"SAFFL":"Y"},{"STUDYID":"CDISCPILOT01","USUBJID":"01-701-1317","AESEQ":6,"AETERM":"DEPRESSED MOOD","AEDECOD":"DEPRESSED MOOD","AESOC":"PSYCHIATRIC DISORDERS","AESOCCD":null,"ASEV":"MILD","ASEVN":1,"AESER":"N","AREL":"POSSIBLE","AEACN":"","AEOUT":"NOT RECOVERED/NOT RESOLVED","ASTDT":"2014-07-04","AENDT":null,"ASTDY":44,"AENDY":null,"TRTEMFL":"Y","AOCC01FL":null,"AOCCFL":null,"TRTP":"Xanomeline Low Dose","TRT01P":"Xanomeline Low Dose","TRT01PN":null,"TRT01A":"Xanomeline Low Dose","SITEGR1":900,"SAFFL":"Y"},{"STUDYID":"CDISCPILOT01","USUBJID":"01-701-1317","AESEQ":7,"AETERM":"DEPRESSED MOOD","AEDECOD":"DEPRESSED MOOD","AESOC":"PSYCHIATRIC DISORDERS","AESOCCD":null,"ASEV":"MODERATE","ASEVN":2,"AESER":"N","AREL":"POSSIBLE","AEACN":"","AEOUT":"NOT RECOVERED/NOT RESOLVED","ASTDT":"2014-07-04","AENDT":null,"ASTDY":44,"AENDY":null,"TRTEMFL":"Y","AOCC01FL":"Y","AOCCFL":null,"TRTP":"Xanomeline Low Dose","TRT01P":"Xanomeline Low Dose","TRT01PN":null,"TRT01A":"Xanomeline Low Dose","SITEGR1":900,"SAFFL":"Y"},{"STUDYID":"CDISCPILOT01","USUBJID":"01-701-1317","AESEQ":8,"AETERM":"FATIGUE","AEDECOD":"FATIGUE","AESOC":"GENERAL DISORDERS AND ADMINISTRATION SITE CONDITIONS","AESOCCD":null,"ASEV":"MILD","ASEVN":1,"AESER":"N","AREL":"REMOTE","AEACN":"","AEOUT":"NOT RECOVERED/NOT RESOLVED","ASTDT":"2014-09-12","AENDT":null,"ASTDY":114,"AENDY":null,"TRTEMFL":"Y","AOCC01FL":"Y","AOCCFL":null,"TRTP":"Xanomeline Low Dose","TRT01P":"Xanomeline Low Dose","TRT01PN":null,"TRT01A":"Xanomeline Low Dose","SITEGR1":900,"SAFFL":"Y"},{"STUDYID":"CDISCPILOT01","USUBJID":"01-701-1317","AESEQ":9,"AETERM":"DYSPHONIA","AEDECOD":"DYSPHONIA","AESOC":"RESPIRATORY, THORACIC AND MEDIASTINAL DISORDERS","AESOCCD":null,"ASEV":"MILD","ASEVN":1,"AESER":"N","AREL":"REMOTE","AEACN":"","AEOUT":"NOT RECOVERED/NOT RESOLVED","ASTDT":"2014-11-03","AENDT":null,"ASTDY":166,"AENDY":null,"TRTEMFL":"Y","AOCC01FL":"Y","AOCCFL":null,"TRTP":"Xanomeline Low Dose","TRT01P":"Xanomeline Low Dose","TRT01PN":null,"TRT01A":"Xanomeline Low Dose","SITEGR1":900,"SAFFL":"Y"},{"STUDYID":"CDISCPILOT01","USUBJID":"01-701-1324","AESEQ":1,"AETERM":"APPLICATION SITE ERYTHEMA","AEDECOD":"APPLICATION SITE ERYTHEMA","AESOC":"GENERAL DISORDERS AND ADMINISTRATION SITE CONDITIONS","AESOCCD":null,"ASEV":"MILD","ASEVN":1,"AESER":"N","AREL":"PROBABLE","AEACN":"","AEOUT":"NOT RECOVERED/NOT RESOLVED","ASTDT":"2012-10-22","AENDT":null,"ASTDY":21,"AENDY":null,"TRTEMFL":"Y","AOCC01FL":"Y","AOCCFL":"Y","TRTP":"Xanomeline Low Dose","TRT01P":"Xanomeline Low Dose","TRT01PN":null,"TRT01A":"Xanomeline Low Dose","SITEGR1":900,"SAFFL":"Y"},{"STUDYID":"CDISCPILOT01","USUBJID":"01-701-1324","AESEQ":2,"AETERM":"APPLICATION SITE PRURITUS","AEDECOD":"APPLICATION SITE PRURITUS","AESOC":"GENERAL DISORDERS AND ADMINISTRATION SITE CONDITIONS","AESOCCD":null,"ASEV":"MILD","ASEVN":1,"AESER":"N","AREL":"PROBABLE","AEACN":"","AEOUT":"NOT RECOVERED/NOT RESOLVED","ASTDT":"2012-12-02","AENDT":null,"ASTDY":62,"AENDY":null,"TRTEMFL":"Y","AOCC01FL":"Y","AOCCFL":null,"TRTP":"Xanomeline Low Dose","TRT01P":"Xanomeline Low Dose","TRT01PN":null,"TRT01A":"Xanomeline Low Dose","SITEGR1":900,"SAFFL":"Y"},{"STUDYID":"CDISCPILOT01","USUBJID":"01-701-1324","AESEQ":3,"AETERM":"APPLICATION SITE VESICLES","AEDECOD":"APPLICATION SITE VESICLES","AESOC":"GENERAL DISORDERS AND ADMINISTRATION SITE CONDITIONS","AESOCCD":null,"ASEV":"MILD","ASEVN":1,"AESER":"N","AREL":"PROBABLE","AEACN":"","AEOUT":"NOT RECOVERED/NOT RESOLVED","ASTDT":"2012-12-25","AENDT":"2013-01-16","ASTDY":85,"AENDY":107,"TRTEMFL":"Y","AOCC01FL":"Y","AOCCFL":null,"TRTP":"Xanomeline Low Dose","TRT01P":"Xanomeline Low Dose","TRT01PN":null,"TRT01A":"Xanomeline Low Dose","SITEGR1":900,"SAFFL":"Y"},{"STUDYID":"CDISCPILOT01","USUBJID":"01-701-1324","AESEQ":4,"AETERM":"APPLICATION SITE VESICLES","AEDECOD":"APPLICATION SITE VESICLES","AESOC":"GENERAL DISORDERS AND ADMINISTRATION SITE CONDITIONS","AESOCCD":null,"ASEV":"MILD","ASEVN":1,"AESER":"N","AREL":"PROBABLE","AEACN":"","AEOUT":"RECOVERED/RESOLVED","ASTDT":"2012-12-25","AENDT":"2013-01-16","ASTDY":85,"AENDY":107,"TRTEMFL":"Y","AOCC01FL":null,"AOCCFL":null,"TRTP":"Xanomeline Low Dose","TRT01P":"Xanomeline Low Dose","TRT01PN":null,"TRT01A":"Xanomeline Low Dose","SITEGR1":900,"SAFFL":"Y"},{"STUDYID":"CDISCPILOT01","USUBJID":"01-701-1341","AESEQ":1,"AETERM":"APPLICATION SITE PRURITUS","AEDECOD":"APPLICATION SITE PRURITUS","AESOC":"GENERAL DISORDERS AND ADMINISTRATION SITE CONDITIONS","AESOCCD":null,"ASEV":"MODERATE","ASEVN":2,"AESER":"N","AREL":"PROBABLE","AEACN":"","AEOUT":"NOT RECOVERED/NOT RESOLVED","ASTDT":"2013-01-19","AENDT":null,"ASTDY":15,"AENDY":null,"TRTEMFL":"Y","AOCC01FL":"Y","AOCCFL":"Y","TRTP":"Xanomeline Low Dose","TRT01P":"Xanomeline Low Dose","TRT01PN":null,"TRT01A":"Xanomeline Low Dose","SITEGR1":900,"SAFFL":"Y"},{"STUDYID":"CDISCPILOT01","USUBJID":"01-701-1341","AESEQ":2,"AETERM":"APPLICATION SITE ERYTHEMA","AEDECOD":"APPLICATION SITE ERYTHEMA","AESOC":"GENERAL DISORDERS AND ADMINISTRATION SITE CONDITIONS","AESOCCD":null,"ASEV":"MODERATE","ASEVN":2,"AESER":"N","AREL":"PROBABLE","AEACN":"","AEOUT":"NOT RECOVERED/NOT RESOLVED","ASTDT":"2013-01-19","AENDT":null,"ASTDY":15,"AENDY":null,"TRTEMFL":"Y","AOCC01FL":"Y","AOCCFL":null,"TRTP":"Xanomeline Low Dose","TRT01P":"Xanomeline Low Dose","TRT01PN":null,"TRT01A":"Xanomeline Low Dose","SITEGR1":900,"SAFFL":"Y"},{"STUDYID":"CDISCPILOT01","USUBJID":"01-701-1341","AESEQ":3,"AETERM":"APPLICATION SITE PRURITUS","AEDECOD":"APPLICATION SITE PRURITUS","AESOC":"GENERAL DISORDERS AND ADMINISTRATION SITE CONDITIONS","AESOCCD":null,"ASEV":"MODERATE","ASEVN":2,"AESER":"N","AREL":"PROBABLE","AEACN":"","AEOUT":"RECOVERED/RESOLVED","ASTDT":"2013-01-26","AENDT":"2013-01-30","ASTDY":22,"AENDY":26,"TRTEMFL":"Y","AOCC01FL":null,"AOCCFL":null,"TRTP":"Xanomeline Low Dose","TRT01P":"Xanomeline Low Dose","TRT01PN":null,"TRT01A":"Xanomeline Low Dose","SITEGR1":900,"SAFFL":"Y"},{"STUDYID":"CDISCPILOT01","USUBJID":"01-701-1341","AESEQ":4,"AETERM":"APPLICATION SITE ERYTHEMA","AEDECOD":"APPLICATION SITE ERYTHEMA","AESOC":"GENERAL DISORDERS AND ADMINISTRATION SITE CONDITIONS","AESOCCD":null,"ASEV":"MODERATE","ASEVN":2,"AESER":"N","AREL":"PROBABLE","AEACN":"","AEOUT":"NOT RECOVERED/NOT RESOLVED","ASTDT":"2013-01-26","AENDT":null,"ASTDY":22,"AENDY":null,"TRTEMFL":"Y","AOCC01FL":null,"AOCCFL":null,"TRTP":"Xanomeline Low Dose","TRT01P":"Xanomeline Low Dose","TRT01PN":null,"TRT01A":"Xanomeline Low Dose","SITEGR1":900,"SAFFL":"Y"},{"STUDYID":"CDISCPILOT01","USUBJID":"01-701-1341","AESEQ":5,"AETERM":"APPLICATION SITE IRRITATION","AEDECOD":"APPLICATION SITE IRRITATION","AESOC":"GENERAL DISORDERS AND ADMINISTRATION SITE CONDITIONS","AESOCCD":null,"ASEV":"MODERATE","ASEVN":2,"AESER":"N","AREL":"PROBABLE","AEACN":"","AEOUT":"RECOVERED/RESOLVED","ASTDT":"2013-01-26","AENDT":"2013-01-30","ASTDY":22,"AENDY":26,"TRTEMFL":"Y","AOCC01FL":"Y","AOCCFL":null,"TRTP":"Xanomeline Low Dose","TRT01P":"Xanomeline Low Dose","TRT01PN":null,"TRT01A":"Xanomeline Low Dose","SITEGR1":900,"SAFFL":"Y"},{"STUDYID":"CDISCPILOT01","USUBJID":"01-701-1360","AESEQ":1,"AETERM":"APPLICATION SITE ERYTHEMA","AEDECOD":"APPLICATION SITE ERYTHEMA","AESOC":"GENERAL DISORDERS AND ADMINISTRATION SITE CONDITIONS","AESOCCD":null,"ASEV":"MODERATE","ASEVN":2,"AESER":"N","AREL":"PROBABLE","AEACN":"","AEOUT":"NOT RECOVERED/NOT RESOLVED","ASTDT":"2013-08-02","AENDT":null,"ASTDY":3,"AENDY":null,"TRTEMFL":"Y","AOCC01FL":"Y","AOCCFL":"Y","TRTP":"Xanomeline High Dose","TRT01P":"Xanomeline High Dose","TRT01PN":null,"TRT01A":"Xanomeline Low Dose","SITEGR1":900,"SAFFL":"Y"},{"STUDYID":"CDISCPILOT01","USUBJID":"01-701-1360","AESEQ":2,"AETERM":"APPLICATION SITE PRURITUS","AEDECOD":"APPLICATION SITE PRURITUS","AESOC":"GENERAL DISORDERS AND ADMINISTRATION SITE CONDITIONS","AESOCCD":null,"ASEV":"MODERATE","ASEVN":2,"AESER":"N","AREL":"PROBABLE","AEACN":"","AEOUT":"NOT RECOVERED/NOT RESOLVED","ASTDT":"2013-08-02","AENDT":null,"ASTDY":3,"AENDY":null,"TRTEMFL":"Y","AOCC01FL":"Y","AOCCFL":null,"TRTP":"Xanomeline High Dose","TRT01P":"Xanomeline High Dose","TRT01PN":null,"TRT01A":"Xanomeline Low Dose","SITEGR1":900,"SAFFL":"Y"},{"STUDYID":"CDISCPILOT01","USUBJID":"01-701-1360","AESEQ":3,"AETERM":"APPLICATION SITE VESICLES","AEDECOD":"APPLICATION SITE VESICLES","AESOC":"GENERAL DISORDERS AND ADMINISTRATION SITE CONDITIONS","AESOCCD":null,"ASEV":"MODERATE","ASEVN":2,"AESER":"N","AREL":"PROBABLE","AEACN":"","AEOUT":"NOT RECOVERED/NOT RESOLVED","ASTDT":"2013-08-05","AENDT":null,"ASTDY":6,"AENDY":null,"TRTEMFL":"Y","AOCC01FL":"Y","AOCCFL":null,"TRTP":"Xanomeline High Dose","TRT01P":"Xanomeline High Dose","TRT01PN":null,"TRT01A":"Xanomeline Low Dose","SITEGR1":900,"SAFFL":"Y"},{"STUDYID":"CDISCPILOT01","USUBJID":"01-701-1363","AESEQ":1,"AETERM":"NAUSEA","AEDECOD":"NAUSEA","AESOC":"GASTROINTESTINAL DISORDERS","AESOCCD":null,"ASEV":"MILD","ASEVN":1,"AESER":"N","AREL":"REMOTE","AEACN":"","AEOUT":"RECOVERED/RESOLVED","ASTDT":"2013-06-14","AENDT":"2013-06-15","ASTDY":16,"AENDY":17,"TRTEMFL":"Y","AOCC01FL":"Y","AOCCFL":"Y","TRTP":"Placebo","TRT01P":"Placebo","TRT01PN":null,"TRT01A":"Placebo","SITEGR1":900,"SAFFL":"Y"},{"STUDYID":"CDISCPILOT01","USUBJID":"01-701-1363","AESEQ":3,"AETERM":"APPLICATION SITE PRURITUS","AEDECOD":"APPLICATION SITE PRURITUS","AESOC":"GENERAL DISORDERS AND ADMINISTRATION SITE CONDITIONS","AESOCCD":null,"ASEV":"MILD","ASEVN":1,"AESER":"N","AREL":"PROBABLE","AEACN":"","AEOUT":"NOT RECOVERED/NOT RESOLVED","ASTDT":"2013-07-16","AENDT":null,"ASTDY":48,"AENDY":null,"TRTEMFL":"Y","AOCC01FL":"Y","AOCCFL":null,"TRTP":"Placebo","TRT01P":"Placebo","TRT01PN":null,"TRT01A":"Placebo","SITEGR1":900,"SAFFL":"Y"},{"STUDYID":"CDISCPILOT01","USUBJID":"01-701-1363","AESEQ":5,"AETERM":"BACK PAIN","AEDECOD":"BACK PAIN","AESOC":"MUSCULOSKELETAL AND CONNECTIVE TISSUE DISORDERS","AESOCCD":null,"ASEV":"MILD","ASEVN":1,"AESER":"N","AREL":"NONE","AEACN":"","AEOUT":"NOT RECOVERED/NOT RESOLVED","ASTDT":"2013-10-13","AENDT":"2013-10-15","ASTDY":137,"AENDY":139,"TRTEMFL":"Y","AOCC01FL":"Y","AOCCFL":null,"TRTP":"Placebo","TRT01P":"Placebo","TRT01PN":null,"TRT01A":"Placebo","SITEGR1":900,"SAFFL":"Y"},{"STUDYID":"CDISCPILOT01","USUBJID":"01-701-1363","AESEQ":6,"AETERM":"BACK PAIN","AEDECOD":"BACK PAIN","AESOC":"MUSCULOSKELETAL AND CONNECTIVE TISSUE DISORDERS","AESOCCD":null,"ASEV":"MILD","ASEVN":1,"AESER":"N","AREL":"NONE","AEACN":"","AEOUT":"RECOVERED/RESOLVED","ASTDT":"2013-10-13","AENDT":"2013-10-15","ASTDY":137,"AENDY":139,"TRTEMFL":"Y","AOCC01FL":null,"AOCCFL":null,"TRTP":"Placebo","TRT01P":"Placebo","TRT01PN":null,"TRT01A":"Placebo","SITEGR1":900,"SAFFL":"Y"},{"STUDYID":"CDISCPILOT01","USUBJID":"01-701-1363","AESEQ":2,"AETERM":"HEADACHE","AEDECOD":"HEADACHE","AESOC":"NERVOUS SYSTEM DISORDERS","AESOCCD":null,"ASEV":"MODERATE","ASEVN":2,"AESER":"N","AREL":"POSSIBLE","AEACN":"","AEOUT":"NOT RECOVERED/NOT RESOLVED","ASTDT":null,"AENDT":null,"ASTDY":null,"AENDY":null,"TRTEMFL":"N","AOCC01FL":null,"AOCCFL":null,"TRTP":"Placebo","TRT01P":"Placebo","TRT01PN":null,"TRT01A":"Placebo","SITEGR1":900,"SAFFL":"Y"},{"STUDYID":"CDISCPILOT01","USUBJID":"01-701-1363","AESEQ":4,"AETERM":"HEADACHE","AEDECOD":"HEADACHE","AESOC":"NERVOUS SYSTEM DISORDERS","AESOCCD":null,"ASEV":"MILD","ASEVN":1,"AESER":"N","AREL":"POSSIBLE","AEACN":"","AEOUT":"NOT RECOVERED/NOT RESOLVED","ASTDT":null,"AENDT":null,"ASTDY":null,"AENDY":null,"TRTEMFL":"N","AOCC01FL":null,"AOCCFL":null,"TRTP":"Placebo","TRT01P":"Placebo","TRT01PN":null,"TRT01A":"Placebo","SITEGR1":900,"SAFFL":"Y"},{"STUDYID":"CDISCPILOT01","USUBJID":"01-701-1383","AESEQ":1,"AETERM":"APPLICATION SITE PRURITUS","AEDECOD":"APPLICATION SITE PRURITUS","AESOC":"GENERAL DISORDERS AND ADMINISTRATION SITE CONDITIONS","AESOCCD":null,"ASEV":"MILD","ASEVN":1,"AESER":"N","AREL":"PROBABLE","AEACN":"","AEOUT":"RECOVERED/RESOLVED","ASTDT":"2013-02-07","AENDT":"2013-02-07","ASTDY":4,"AENDY":4,"TRTEMFL":"Y","AOCC01FL":null,"AOCCFL":"Y","TRTP":"Xanomeline High Dose","TRT01P":"Xanomeline High Dose","TRT01PN":null,"TRT01A":"Xanomeline High Dose","SITEGR1":900,"SAFFL":"Y"},{"STUDYID":"CDISCPILOT01","USUBJID":"01-701-1383","AESEQ":2,"AETERM":"APPLICATION SITE PAIN","AEDECOD":"APPLICATION SITE PAIN","AESOC":"GENERAL DISORDERS AND ADMINISTRATION SITE CONDITIONS","AESOCCD":null,"ASEV":"MILD","ASEVN":1,"AESER":"N","AREL":"PROBABLE","AEACN":"","AEOUT":"RECOVERED/RESOLVED","ASTDT":"2013-02-07","AENDT":"2013-02-07","ASTDY":4,"AENDY":4,"TRTEMFL":"Y","AOCC01FL":"Y","AOCCFL":null,"TRTP":"Xanomeline High Dose","TRT01P":"Xanomeline High Dose","TRT01PN":null,"TRT01A":"Xanomeline High Dose","SITEGR1":900,"SAFFL":"Y"},{"STUDYID":"CDISCPILOT01","USUBJID":"01-701-1383","AESEQ":3,"AETERM":"APPLICATION SITE ERYTHEMA","AEDECOD":"APPLICATION SITE ERYTHEMA","AESOC":"GENERAL DISORDERS AND ADMINISTRATION SITE CONDITIONS","AESOCCD":null,"ASEV":"MILD","ASEVN":1,"AESER":"N","AREL":"POSSIBLE","AEACN":"","AEOUT":"RECOVERED/RESOLVED","ASTDT":"2013-03-23","AENDT":"2013-03-26","ASTDY":48,"AENDY":51,"TRTEMFL":"Y","AOCC01FL":"Y","AOCCFL":null,"TRTP":"Xanomeline High Dose","TRT01P":"Xanomeline High Dose","TRT01PN":null,"TRT01A":"Xanomeline High Dose","SITEGR1":900,"SAFFL":"Y"},{"STUDYID":"CDISCPILOT01","USUBJID":"01-701-1383","AESEQ":4,"AETERM":"APPLICATION SITE PRURITUS","AEDECOD":"APPLICATION SITE PRURITUS","AESOC":"GENERAL DISORDERS AND ADMINISTRATION SITE CONDITIONS","AESOCCD":null,"ASEV":"MILD","ASEVN":1,"AESER":"N","AREL":"POSSIBLE","AEACN":"","AEOUT":"NOT RECOVERED/NOT RESOLVED","ASTDT":"2013-03-23","AENDT":null,"ASTDY":48,"AENDY":null,"TRTEMFL":"Y","AOCC01FL":null,"AOCCFL":null,"TRTP":"Xanomeline High Dose","TRT01P":"Xanomeline High Dose","TRT01PN":null,"TRT01A":"Xanomeline High Dose","SITEGR1":900,"SAFFL":"Y"},{"STUDYID":"CDISCPILOT01","USUBJID":"01-701-1383","AESEQ":7,"AETERM":"APPLICATION SITE PRURITUS","AEDECOD":"APPLICATION SITE PRURITUS","AESOC":"GENERAL DISORDERS AND ADMINISTRATION SITE CONDITIONS","AESOCCD":null,"ASEV":"MODERATE","ASEVN":2,"AESER":"N","AREL":"POSSIBLE","AEACN":"","AEOUT":"NOT RECOVERED/NOT RESOLVED","ASTDT":"2013-03-23","AENDT":null,"ASTDY":48,"AENDY":null,"TRTEMFL":"Y","AOCC01FL":"Y","AOCCFL":null,"TRTP":"Xanomeline High Dose","TRT01P":"Xanomeline High Dose","TRT01PN":null,"TRT01A":"Xanomeline High Dose","SITEGR1":900,"SAFFL":"Y"},{"STUDYID":"CDISCPILOT01","USUBJID":"01-701-1383","AESEQ":5,"AETERM":"APPLICATION SITE ERYTHEMA","AEDECOD":"APPLICATION SITE ERYTHEMA","AESOC":"GENERAL DISORDERS AND ADMINISTRATION SITE CONDITIONS","AESOCCD":null,"ASEV":"MILD","ASEVN":1,"AESER":"N","AREL":"POSSIBLE","AEACN":"","AEOUT":"NOT RECOVERED/NOT RESOLVED","ASTDT":"2013-04-12","AENDT":null,"ASTDY":68,"AENDY":null,"TRTEMFL":"Y","AOCC01FL":null,"AOCCFL":null,"TRTP":"Xanomeline High Dose","TRT01P":"Xanomeline High Dose","TRT01PN":null,"TRT01A":"Xanomeline High Dose","SITEGR1":900,"SAFFL":"Y"},{"STUDYID":"CDISCPILOT01","USUBJID":"01-701-1383","AESEQ":6,"AETERM":"APPLICATION SITE IRRITATION","AEDECOD":"APPLICATION SITE IRRITATION","AESOC":"GENERAL DISORDERS AND ADMINISTRATION SITE CONDITIONS","AESOCCD":null,"ASEV":"MILD","ASEVN":1,"AESER":"N","AREL":"POSSIBLE","AEACN":"","AEOUT":"NOT RECOVERED/NOT RESOLVED","ASTDT":"2013-04-12","AENDT":null,"ASTDY":68,"AENDY":null,"TRTEMFL":"Y","AOCC01FL":null,"AOCCFL":null,"TRTP":"Xanomeline High Dose","TRT01P":"Xanomeline High Dose","TRT01PN":null,"TRT01A":"Xanomeline High Dose","SITEGR1":900,"SAFFL":"Y"},{"STUDYID":"CDISCPILOT01","USUBJID":"01-701-1383","AESEQ":8,"AETERM":"APPLICATION SITE IRRITATION","AEDECOD":"APPLICATION SITE IRRITATION","AESOC":"GENERAL DISORDERS AND ADMINISTRATION SITE CONDITIONS","AESOCCD":null,"ASEV":"MODERATE","ASEVN":2,"AESER":"N","AREL":"POSSIBLE","AEACN":"","AEOUT":"NOT RECOVERED/NOT RESOLVED","ASTDT":"2013-04-12","AENDT":null,"ASTDY":68,"AENDY":null,"TRTEMFL":"Y","AOCC01FL":"Y","AOCCFL":null,"TRTP":"Xanomeline High Dose","TRT01P":"Xanomeline High Dose","TRT01PN":null,"TRT01A":"Xanomeline High Dose","SITEGR1":900,"SAFFL":"Y"},{"STUDYID":"CDISCPILOT01","USUBJID":"01-701-1383","AESEQ":9,"AETERM":"APPLICATION SITE VESICLES","AEDECOD":"APPLICATION SITE VESICLES","AESOC":"GENERAL DISORDERS AND ADMINISTRATION SITE CONDITIONS","AESOCCD":null,"ASEV":"MILD","ASEVN":1,"AESER":"N","AREL":"POSSIBLE","AEACN":"","AEOUT":"RECOVERED/RESOLVED","ASTDT":"2013-05-07","AENDT":"2013-05-24","ASTDY":93,"AENDY":110,"TRTEMFL":"Y","AOCC01FL":"Y","AOCCFL":null,"TRTP":"Xanomeline High Dose","TRT01P":"Xanomeline High Dose","TRT01PN":null,"TRT01A":"Xanomeline High Dose","SITEGR1":900,"SAFFL":"Y"},{"STUDYID":"CDISCPILOT01","USUBJID":"01-701-1383","AESEQ":10,"AETERM":"CHEST DISCOMFORT","AEDECOD":"CHEST DISCOMFORT","AESOC":"GENERAL DISORDERS AND ADMINISTRATION SITE CONDITIONS","AESOCCD":null,"ASEV":"MILD","ASEVN":1,"AESER":"N","AREL":"NONE","AEACN":"","AEOUT":"RECOVERED/RESOLVED","ASTDT":"2013-06-24","AENDT":"2013-06-24","ASTDY":141,"AENDY":141,"TRTEMFL":"Y","AOCC01FL":"Y","AOCCFL":null,"TRTP":"Xanomeline High Dose","TRT01P":"Xanomeline High Dose","TRT01PN":null,"TRT01A":"Xanomeline High Dose","SITEGR1":900,"SAFFL":"Y"},{"STUDYID":"CDISCPILOT01","USUBJID":"01-701-1383","AESEQ":11,"AETERM":"HEADACHE","AEDECOD":"HEADACHE","AESOC":"NERVOUS SYSTEM DISORDERS","AESOCCD":null,"ASEV":"MILD","ASEVN":1,"AESER":"N","AREL":"NONE","AEACN":"","AEOUT":"RECOVERED/RESOLVED","ASTDT":"2013-06-24","AENDT":"2013-06-24","ASTDY":141,"AENDY":141,"TRTEMFL":"Y","AOCC01FL":"Y","AOCCFL":null,"TRTP":"Xanomeline High Dose","TRT01P":"Xanomeline High Dose","TRT01PN":null,"TRT01A":"Xanomeline High Dose","SITEGR1":900,"SAFFL":"Y"},{"STUDYID":"CDISCPILOT01","USUBJID":"01-701-1383","AESEQ":12,"AETERM":"COUGH","AEDECOD":"COUGH","AESOC":"RESPIRATORY, THORACIC AND MEDIASTINAL DISORDERS","AESOCCD":null,"ASEV":"MODERATE","ASEVN":2,"AESER":"N","AREL":"NONE","AEACN":"","AEOUT":"RECOVERED/RESOLVED","ASTDT":"2013-07-17","AENDT":"2013-07-26","ASTDY":164,"AENDY":173,"TRTEMFL":"Y","AOCC01FL":"Y","AOCCFL":null,"TRTP":"Xanomeline High Dose","TRT01P":"Xanomeline High Dose","TRT01PN":null,"TRT01A":"Xanomeline High Dose","SITEGR1":900,"SAFFL":"Y"},{"STUDYID":"CDISCPILOT01","USUBJID":"01-701-1387","AESEQ":1,"AETERM":"DIARRHOEA","AEDECOD":"DIARRHOEA","AESOC":"GASTROINTESTINAL DISORDERS","AESOCCD":null,"ASEV":"MILD","ASEVN":1,"AESER":"N","AREL":"REMOTE","AEACN":"","AEOUT":"RECOVERED/RESOLVED","ASTDT":"2014-03-18","AENDT":"2014-03-18","ASTDY":7,"AENDY":7,"TRTEMFL":"Y","AOCC01FL":"Y","AOCCFL":"Y","TRTP":"Placebo","TRT01P":"Placebo","TRT01PN":null,"TRT01A":"Placebo","SITEGR1":900,"SAFFL":"Y"},{"STUDYID":"CDISCPILOT01","USUBJID":"01-701-1387","AESEQ":2,"AETERM":"HYPERHIDROSIS","AEDECOD":"HYPERHIDROSIS","AESOC":"SKIN AND SUBCUTANEOUS TISSUE DISORDERS","AESOCCD":null,"ASEV":"MILD","ASEVN":1,"AESER":"N","AREL":"REMOTE","AEACN":"","AEOUT":"RECOVERED/RESOLVED","ASTDT":"2014-03-18","AENDT":"2014-03-18","ASTDY":7,"AENDY":7,"TRTEMFL":"Y","AOCC01FL":"Y","AOCCFL":null,"TRTP":"Placebo","TRT01P":"Placebo","TRT01PN":null,"TRT01A":"Placebo","SITEGR1":900,"SAFFL":"Y"},{"STUDYID":"CDISCPILOT01","USUBJID":"01-701-1392","AESEQ":1,"AETERM":"UPPER RESPIRATORY TRACT INFECTION","AEDECOD":"UPPER RESPIRATORY TRACT INFECTION","AESOC":"INFECTIONS AND INFESTATIONS","AESOCCD":null,"ASEV":"MILD","ASEVN":1,"AESER":"N","AREL":"REMOTE","AEACN":"","AEOUT":"NOT RECOVERED/NOT RESOLVED","ASTDT":"2013-03-16","AENDT":"2013-03-21","ASTDY":140,"AENDY":145,"TRTEMFL":"Y","AOCC01FL":"Y","AOCCFL":"Y","TRTP":"Placebo","TRT01P":"Placebo","TRT01PN":null,"TRT01A":"Placebo","SITEGR1":900,"SAFFL":"Y"},{"STUDYID":"CDISCPILOT01","USUBJID":"01-701-1392","AESEQ":2,"AETERM":"UPPER RESPIRATORY TRACT INFECTION","AEDECOD":"UPPER RESPIRATORY TRACT INFECTION","AESOC":"INFECTIONS AND INFESTATIONS","AESOCCD":null,"ASEV":"MILD","ASEVN":1,"AESER":"N","AREL":"REMOTE","AEACN":"","AEOUT":"RECOVERED/RESOLVED","ASTDT":"2013-03-16","AENDT":"2013-03-21","ASTDY":140,"AENDY":145,"TRTEMFL":"Y","AOCC01FL":null,"AOCCFL":null,"TRTP":"Placebo","TRT01P":"Placebo","TRT01PN":null,"TRT01A":"Placebo","SITEGR1":900,"SAFFL":"Y"},{"STUDYID":"CDISCPILOT01","USUBJID":"01-701-1415","AESEQ":1,"AETERM":"UPPER RESPIRATORY TRACT INFECTION","AEDECOD":"UPPER RESPIRATORY TRACT INFECTION","AESOC":"INFECTIONS AND INFESTATIONS","AESOCCD":null,"ASEV":"MILD","ASEVN":1,"AESER":"N","AREL":"NONE","AEACN":"","AEOUT":"NOT RECOVERED/NOT RESOLVED","ASTDT":"2013-10-21","AENDT":"2013-11-04","ASTDY":29,"AENDY":43,"TRTEMFL":"Y","AOCC01FL":"Y","AOCCFL":"Y","TRTP":"Placebo","TRT01P":"Placebo","TRT01PN":null,"TRT01A":"Placebo","SITEGR1":900,"SAFFL":"Y"},{"STUDYID":"CDISCPILOT01","USUBJID":"01-701-1415","AESEQ":2,"AETERM":"UPPER RESPIRATORY TRACT INFECTION","AEDECOD":"UPPER RESPIRATORY TRACT INFECTION","AESOC":"INFECTIONS AND INFESTATIONS","AESOCCD":null,"ASEV":"MILD","ASEVN":1,"AESER":"N","AREL":"NONE","AEACN":"","AEOUT":"RECOVERED/RESOLVED","ASTDT":"2013-10-21","AENDT":"2013-11-04","ASTDY":29,"AENDY":43,"TRTEMFL":"Y","AOCC01FL":null,"AOCCFL":null,"TRTP":"Placebo","TRT01P":"Placebo","TRT01PN":null,"TRT01A":"Placebo","SITEGR1":900,"SAFFL":"Y"},{"STUDYID":"CDISCPILOT01","USUBJID":"01-701-1415","AESEQ":3,"AETERM":"MICTURITION URGENCY","AEDECOD":"MICTURITION URGENCY","AESOC":"RENAL AND URINARY DISORDERS","AESOCCD":null,"ASEV":"MILD","ASEVN":1,"AESER":"N","AREL":"NONE","AEACN":"","AEOUT":"NOT RECOVERED/NOT RESOLVED","ASTDT":"2013-12-02","AENDT":null,"ASTDY":71,"AENDY":null,"TRTEMFL":"Y","AOCC01FL":"Y","AOCCFL":null,"TRTP":"Placebo","TRT01P":"Placebo","TRT01PN":null,"TRT01A":"Placebo","SITEGR1":900,"SAFFL":"Y"},{"STUDYID":"CDISCPILOT01","USUBJID":"01-701-1415","AESEQ":4,"AETERM":"UPPER RESPIRATORY TRACT INFECTION","AEDECOD":"UPPER RESPIRATORY TRACT INFECTION","AESOC":"INFECTIONS AND INFESTATIONS","AESOCCD":null,"ASEV":"MILD","ASEVN":1,"AESER":"N","AREL":"REMOTE","AEACN":"","AEOUT":"NOT RECOVERED/NOT RESOLVED","ASTDT":"2014-01-21","AENDT":"2014-02-10","ASTDY":121,"AENDY":141,"TRTEMFL":"Y","AOCC01FL":null,"AOCCFL":null,"TRTP":"Placebo","TRT01P":"Placebo","TRT01PN":null,"TRT01A":"Placebo","SITEGR1":900,"SAFFL":"Y"},{"STUDYID":"CDISCPILOT01","USUBJID":"01-701-1415","AESEQ":5,"AETERM":"UPPER RESPIRATORY TRACT INFECTION","AEDECOD":"UPPER RESPIRATORY TRACT INFECTION","AESOC":"INFECTIONS AND INFESTATIONS","AESOCCD":null,"ASEV":"MILD","ASEVN":1,"AESER":"N","AREL":"REMOTE","AEACN":"","AEOUT":"RECOVERED/RESOLVED","ASTDT":"2014-01-21","AENDT":"2014-02-10","ASTDY":121,"AENDY":141,"TRTEMFL":"Y","AOCC01FL":null,"AOCCFL":null,"TRTP":"Placebo","TRT01P":"Placebo","TRT01PN":null,"TRT01A":"Placebo","SITEGR1":900,"SAFFL":"Y"},{"STUDYID":"CDISCPILOT01","USUBJID":"01-701-1415","AESEQ":6,"AETERM":"DIARRHOEA","AEDECOD":"DIARRHOEA","AESOC":"GASTROINTESTINAL DISORDERS","AESOCCD":null,"ASEV":"MILD","ASEVN":1,"AESER":"N","AREL":"NONE","AEACN":"","AEOUT":"RECOVERED/RESOLVED","ASTDT":"2014-03-09","AENDT":"2014-03-09","ASTDY":168,"AENDY":168,"TRTEMFL":"Y","AOCC01FL":"Y","AOCCFL":null,"TRTP":"Placebo","TRT01P":"Placebo","TRT01PN":null,"TRT01A":"Placebo","SITEGR1":900,"SAFFL":"Y"},{"STUDYID":"CDISCPILOT01","USUBJID":"01-701-1442","AESEQ":1,"AETERM":"APPLICATION SITE PRURITUS","AEDECOD":"APPLICATION SITE PRURITUS","AESOC":"GENERAL DISORDERS AND ADMINISTRATION SITE CONDITIONS","AESOCCD":null,"ASEV":"MILD","ASEVN":1,"AESER":"N","AREL":"PROBABLE","AEACN":"","AEOUT":"NOT RECOVERED/NOT RESOLVED","ASTDT":"2014-01-10","AENDT":null,"ASTDY":77,"AENDY":null,"TRTEMFL":"Y","AOCC01FL":"Y","AOCCFL":"Y","TRTP":"Xanomeline Low Dose","TRT01P":"Xanomeline Low Dose","TRT01PN":null,"TRT01A":"Xanomeline Low Dose","SITEGR1":900,"SAFFL":"Y"},{"STUDYID":"CDISCPILOT01","USUBJID":"01-701-1444","AESEQ":1,"AETERM":"APPLICATION SITE ERYTHEMA","AEDECOD":"APPLICATION SITE ERYTHEMA","AESOC":"GENERAL DISORDERS AND ADMINISTRATION SITE CONDITIONS","AESOCCD":null,"ASEV":"MILD","ASEVN":1,"AESER":"N","AREL":"POSSIBLE","AEACN":"","AEOUT":"NOT RECOVERED/NOT RESOLVED","ASTDT":"2013-01-19","AENDT":null,"ASTDY":15,"AENDY":null,"TRTEMFL":"Y","AOCC01FL":null,"AOCCFL":"Y","TRTP":"Xanomeline High Dose","TRT01P":"Xanomeline High Dose","TRT01PN":null,"TRT01A":"Xanomeline High Dose","SITEGR1":900,"SAFFL":"Y"},{"STUDYID":"CDISCPILOT01","USUBJID":"01-701-1444","AESEQ":2,"AETERM":"APPLICATION SITE PRURITUS","AEDECOD":"APPLICATION SITE PRURITUS","AESOC":"GENERAL DISORDERS AND ADMINISTRATION SITE CONDITIONS","AESOCCD":null,"ASEV":"MILD","ASEVN":1,"AESER":"N","AREL":"PROBABLE","AEACN":"","AEOUT":"NOT RECOVERED/NOT RESOLVED","ASTDT":"2013-01-19","AENDT":null,"ASTDY":15,"AENDY":null,"TRTEMFL":"Y","AOCC01FL":null,"AOCCFL":null,"TRTP":"Xanomeline High Dose","TRT01P":"Xanomeline High Dose","TRT01PN":null,"TRT01A":"Xanomeline High Dose","SITEGR1":900,"SAFFL":"Y"},{"STUDYID":"CDISCPILOT01","USUBJID":"01-701-1444","AESEQ":3,"AETERM":"SALIVARY HYPERSECRETION","AEDECOD":"SALIVARY HYPERSECRETION","AESOC":"GASTROINTESTINAL DISORDERS","AESOCCD":null,"ASEV":"MILD","ASEVN":1,"AESER":"N","AREL":"POSSIBLE","AEACN":"","AEOUT":"NOT RECOVERED/NOT RESOLVED","ASTDT":"2013-01-19","AENDT":null,"ASTDY":15,"AENDY":null,"TRTEMFL":"Y","AOCC01FL":"Y","AOCCFL":null,"TRTP":"Xanomeline High Dose","TRT01P":"Xanomeline High Dose","TRT01PN":null,"TRT01A":"Xanomeline High Dose","SITEGR1":900,"SAFFL":"Y"},{"STUDYID":"CDISCPILOT01","USUBJID":"01-701-1444","AESEQ":4,"AETERM":"APPLICATION SITE ERYTHEMA","AEDECOD":"APPLICATION SITE ERYTHEMA","AESOC":"GENERAL DISORDERS AND ADMINISTRATION SITE CONDITIONS","AESOCCD":null,"ASEV":"MODERATE","ASEVN":2,"AESER":"N","AREL":"POSSIBLE","AEACN":"","AEOUT":"NOT RECOVERED/NOT RESOLVED","ASTDT":"2013-01-19","AENDT":null,"ASTDY":15,"AENDY":null,"TRTEMFL":"Y","AOCC01FL":"Y","AOCCFL":null,"TRTP":"Xanomeline High Dose","TRT01P":"Xanomeline High Dose","TRT01PN":null,"TRT01A":"Xanomeline High Dose","SITEGR1":900,"SAFFL":"Y"},{"STUDYID":"CDISCPILOT01","USUBJID":"01-701-1444","AESEQ":5,"AETERM":"APPLICATION SITE PRURITUS","AEDECOD":"APPLICATION SITE PRURITUS","AESOC":"GENERAL DISORDERS AND ADMINISTRATION SITE CONDITIONS","AESOCCD":null,"ASEV":"MODERATE","ASEVN":2,"AESER":"N","AREL":"PROBABLE","AEACN":"","AEOUT":"NOT RECOVERED/NOT RESOLVED","ASTDT":"2013-01-19","AENDT":null,"ASTDY":15,"AENDY":null,"TRTEMFL":"Y","AOCC01FL":"Y","AOCCFL":null,"TRTP":"Xanomeline High Dose","TRT01P":"Xanomeline High Dose","TRT01PN":null,"TRT01A":"Xanomeline High Dose","SITEGR1":900,"SAFFL":"Y"},{"STUDYID":"CDISCPILOT01","USUBJID":"01-701-1444","AESEQ":6,"AETERM":"APPLICATION SITE IRRITATION","AEDECOD":"APPLICATION SITE IRRITATION","AESOC":"GENERAL DISORDERS AND ADMINISTRATION SITE CONDITIONS","AESOCCD":null,"ASEV":"MODERATE","ASEVN":2,"AESER":"N","AREL":"PROBABLE","AEACN":"","AEOUT":"NOT RECOVERED/NOT RESOLVED","ASTDT":"2013-02-04","AENDT":null,"ASTDY":31,"AENDY":null,"TRTEMFL":"Y","AOCC01FL":"Y","AOCCFL":null,"TRTP":"Xanomeline High Dose","TRT01P":"Xanomeline High Dose","TRT01PN":null,"TRT01A":"Xanomeline High Dose","SITEGR1":900,"SAFFL":"Y"},{"STUDYID":"CDISCPILOT01","USUBJID":"01-701-1444","AESEQ":7,"AETERM":"APPLICATION SITE VESICLES","AEDECOD":"APPLICATION SITE VESICLES","AESOC":"GENERAL DISORDERS AND ADMINISTRATION SITE CONDITIONS","AESOCCD":null,"ASEV":"MODERATE","ASEVN":2,"AESER":"N","AREL":"PROBABLE","AEACN":"","AEOUT":"NOT RECOVERED/NOT RESOLVED","ASTDT":"2013-02-04","AENDT":null,"ASTDY":31,"AENDY":null,"TRTEMFL":"Y","AOCC01FL":"Y","AOCCFL":null,"TRTP":"Xanomeline High Dose","TRT01P":"Xanomeline High Dose","TRT01PN":null,"TRT01A":"Xanomeline High Dose","SITEGR1":900,"SAFFL":"Y"},{"STUDYID":"CDISCPILOT01","USUBJID":"01-701-1444","AESEQ":8,"AETERM":"PARAESTHESIA","AEDECOD":"PARAESTHESIA","AESOC":"NERVOUS SYSTEM DISORDERS","AESOCCD":null,"ASEV":"MILD","ASEVN":1,"AESER":"N","AREL":"NONE","AEACN":"","AEOUT":"RECOVERED/RESOLVED","ASTDT":"2013-02-08","AENDT":"2013-02-08","ASTDY":35,"AENDY":35,"TRTEMFL":"Y","AOCC01FL":"Y","AOCCFL":null,"TRTP":"Xanomeline High Dose","TRT01P":"Xanomeline High Dose","TRT01PN":null,"TRT01A":"Xanomeline High Dose","SITEGR1":900,"SAFFL":"Y"},{"STUDYID":"CDISCPILOT01","USUBJID":"01-702-1082","AESEQ":1,"AETERM":"WHITE BLOOD CELL COUNT INCREASED","AEDECOD":"WHITE BLOOD CELL COUNT INCREASED","AESOC":"INVESTIGATIONS","AESOCCD":null,"ASEV":"MILD","ASEVN":1,"AESER":"N","AREL":"NONE","AEACN":"","AEOUT":"NOT RECOVERED/NOT RESOLVED","ASTDT":"2013-07-07","AENDT":"2013-07-26","ASTDY":-19,"AENDY":1,"TRTEMFL":"N","AOCC01FL":null,"AOCCFL":null,"TRTP":"Xanomeline Low Dose","TRT01P":"Xanomeline Low Dose","TRT01PN":null,"TRT01A":"Xanomeline Low Dose","SITEGR1":900,"SAFFL":"Y"},{"STUDYID":"CDISCPILOT01","USUBJID":"01-702-1082","AESEQ":2,"AETERM":"NEUTROPHIL COUNT INCREASED","AEDECOD":"NEUTROPHIL COUNT INCREASED","AESOC":"INVESTIGATIONS","AESOCCD":null,"ASEV":"MILD","ASEVN":1,"AESER":"N","AREL":"NONE","AEACN":"","AEOUT":"NOT RECOVERED/NOT RESOLVED","ASTDT":"2013-07-07","AENDT":"2013-07-26","ASTDY":-19,"AENDY":1,"TRTEMFL":"N","AOCC01FL":null,"AOCCFL":null,"TRTP":"Xanomeline Low Dose","TRT01P":"Xanomeline Low Dose","TRT01PN":null,"TRT01A":"Xanomeline Low Dose","SITEGR1":900,"SAFFL":"Y"},{"STUDYID":"CDISCPILOT01","USUBJID":"01-702-1082","AESEQ":3,"AETERM":"URINE ANALYSIS ABNORMAL","AEDECOD":"URINE ANALYSIS ABNORMAL","AESOC":"INVESTIGATIONS","AESOCCD":null,"ASEV":"MILD","ASEVN":1,"AESER":"N","AREL":"NONE","AEACN":"","AEOUT":"NOT RECOVERED/NOT RESOLVED","ASTDT":"2013-07-07","AENDT":"2013-07-24","ASTDY":-19,"AENDY":-2,"TRTEMFL":"N","AOCC01FL":null,"AOCCFL":null,"TRTP":"Xanomeline Low Dose","TRT01P":"Xanomeline Low Dose","TRT01PN":null,"TRT01A":"Xanomeline Low Dose","SITEGR1":900,"SAFFL":"Y"},{"STUDYID":"CDISCPILOT01","USUBJID":"01-702-1082","AESEQ":4,"AETERM":"URINE ANALYSIS ABNORMAL","AEDECOD":"URINE ANALYSIS ABNORMAL","AESOC":"INVESTIGATIONS","AESOCCD":null,"ASEV":"MILD","ASEVN":1,"AESER":"N","AREL":"NONE","AEACN":"","AEOUT":"RECOVERED/RESOLVED","ASTDT":"2013-07-07","AENDT":"2013-07-24","ASTDY":-19,"AENDY":-2,"TRTEMFL":"N","AOCC01FL":null,"AOCCFL":null,"TRTP":"Xanomeline Low Dose","TRT01P":"Xanomeline Low Dose","TRT01PN":null,"TRT01A":"Xanomeline Low Dose","SITEGR1":900,"SAFFL":"Y"},{"STUDYID":"CDISCPILOT01","USUBJID":"01-702-1082","AESEQ":5,"AETERM":"WHITE BLOOD CELL COUNT INCREASED","AEDECOD":"WHITE BLOOD CELL COUNT INCREASED","AESOC":"INVESTIGATIONS","AESOCCD":null,"ASEV":"MILD","ASEVN":1,"AESER":"N","AREL":"NONE","AEACN":"","AEOUT":"RECOVERED/RESOLVED","ASTDT":"2013-07-07","AENDT":"2013-07-26","ASTDY":-19,"AENDY":1,"TRTEMFL":"N","AOCC01FL":null,"AOCCFL":null,"TRTP":"Xanomeline Low Dose","TRT01P":"Xanomeline Low Dose","TRT01PN":null,"TRT01A":"Xanomeline Low Dose","SITEGR1":900,"SAFFL":"Y"},{"STUDYID":"CDISCPILOT01","USUBJID":"01-702-1082","AESEQ":6,"AETERM":"NEUTROPHIL COUNT INCREASED","AEDECOD":"NEUTROPHIL COUNT INCREASED","AESOC":"INVESTIGATIONS","AESOCCD":null,"ASEV":"MILD","ASEVN":1,"AESER":"N","AREL":"NONE","AEACN":"","AEOUT":"RECOVERED/RESOLVED","ASTDT":"2013-07-07","AENDT":"2013-07-26","ASTDY":-19,"AENDY":1,"TRTEMFL":"N","AOCC01FL":null,"AOCCFL":null,"TRTP":"Xanomeline Low Dose","TRT01P":"Xanomeline Low Dose","TRT01PN":null,"TRT01A":"Xanomeline Low Dose","SITEGR1":900,"SAFFL":"Y"},{"STUDYID":"CDISCPILOT01","USUBJID":"01-702-1082","AESEQ":7,"AETERM":"RECTAL HAEMORRHAGE","AEDECOD":"RECTAL HAEMORRHAGE","AESOC":"GASTROINTESTINAL DISORDERS","AESOCCD":null,"ASEV":"MILD","ASEVN":1,"AESER":"N","AREL":"NONE","AEACN":"","AEOUT":"NOT RECOVERED/NOT RESOLVED","ASTDT":"2013-09-02","AENDT":"2013-09-06","ASTDY":39,"AENDY":43,"TRTEMFL":"Y","AOCC01FL":"Y","AOCCFL":null,"TRTP":"Xanomeline Low Dose","TRT01P":"Xanomeline Low Dose","TRT01PN":null,"TRT01A":"Xanomeline Low Dose","SITEGR1":900,"SAFFL":"Y"},{"STUDYID":"CDISCPILOT01","USUBJID":"01-702-1082","AESEQ":8,"AETERM":"RECTAL HAEMORRHAGE","AEDECOD":"RECTAL HAEMORRHAGE","AESOC":"GASTROINTESTINAL DISORDERS","AESOCCD":null,"ASEV":"MILD","ASEVN":1,"AESER":"N","AREL":"NONE","AEACN":"","AEOUT":"RECOVERED/RESOLVED","ASTDT":"2013-09-02","AENDT":"2013-09-06","ASTDY":39,"AENDY":43,"TRTEMFL":"Y","AOCC01FL":null,"AOCCFL":null,"TRTP":"Xanomeline Low Dose","TRT01P":"Xanomeline Low Dose","TRT01PN":null,"TRT01A":"Xanomeline Low Dose","SITEGR1":900,"SAFFL":"Y"},{"STUDYID":"CDISCPILOT01","USUBJID":"01-702-1082","AESEQ":9,"AETERM":"APPLICATION SITE IRRITATION","AEDECOD":"APPLICATION SITE IRRITATION","AESOC":"GENERAL DISORDERS AND ADMINISTRATION SITE CONDITIONS","AESOCCD":null,"ASEV":"MILD","ASEVN":1,"AESER":"N","AREL":"PROBABLE","AEACN":"","AEOUT":"RECOVERED/RESOLVED","ASTDT":"2013-09-09","AENDT":"2013-09-24","ASTDY":46,"AENDY":61,"TRTEMFL":"Y","AOCC01FL":"Y","AOCCFL":null,"TRTP":"Xanomeline Low Dose","TRT01P":"Xanomeline Low Dose","TRT01PN":null,"TRT01A":"Xanomeline Low Dose","SITEGR1":900,"SAFFL":"Y"},{"STUDYID":"CDISCPILOT01","USUBJID":"01-702-1082","AESEQ":10,"AETERM":"SKIN IRRITATION","AEDECOD":"SKIN IRRITATION","AESOC":"SKIN AND SUBCUTANEOUS TISSUE DISORDERS","AESOCCD":null,"ASEV":"MODERATE","ASEVN":2,"AESER":"N","AREL":"PROBABLE","AEACN":"","AEOUT":"RECOVERED/RESOLVED","ASTDT":"2013-10-12","AENDT":"2013-10-31","ASTDY":79,"AENDY":98,"TRTEMFL":"Y","AOCC01FL":"Y","AOCCFL":null,"TRTP":"Xanomeline Low Dose","TRT01P":"Xanomeline Low Dose","TRT01PN":null,"TRT01A":"Xanomeline Low Dose","SITEGR1":900,"SAFFL":"Y"},{"STUDYID":"CDISCPILOT01","USUBJID":"01-703-1042","AESEQ":1,"AETERM":"DIARRHOEA","AEDECOD":"DIARRHOEA","AESOC":"GASTROINTESTINAL DISORDERS","AESOCCD":null,"ASEV":"MILD","ASEVN":1,"AESER":"N","AREL":"POSSIBLE","AEACN":"","AEOUT":"RECOVERED/RESOLVED","ASTDT":"2013-03-04","AENDT":"2013-03-05","ASTDY":3,"AENDY":4,"TRTEMFL":"Y","AOCC01FL":"Y","AOCCFL":"Y","TRTP":"Placebo","TRT01P":"Placebo","TRT01PN":null,"TRT01A":"Placebo","SITEGR1":900,"SAFFL":"Y"},{"STUDYID":"CDISCPILOT01","USUBJID":"01-703-1042","AESEQ":2,"AETERM":"INSOMNIA","AEDECOD":"INSOMNIA","AESOC":"PSYCHIATRIC DISORDERS","AESOCCD":null,"ASEV":"MILD","ASEVN":1,"AESER":"N","AREL":"REMOTE","AEACN":"","AEOUT":"RECOVERED/RESOLVED","ASTDT":"2013-03-05","AENDT":"2013-03-06","ASTDY":4,"AENDY":5,"TRTEMFL":"Y","AOCC01FL":"Y","AOCCFL":null,"TRTP":"Placebo","TRT01P":"Placebo","TRT01PN":null,"TRT01A":"Placebo","SITEGR1":900,"SAFFL":"Y"},{"STUDYID":"CDISCPILOT01","USUBJID":"01-703-1076","AESEQ":1,"AETERM":"BIOPSY PROSTATE","AEDECOD":"BIOPSY PROSTATE","AESOC":"INVESTIGATIONS","AESOCCD":null,"ASEV":"MODERATE","ASEVN":2,"AESER":"N","AREL":"NONE","AEACN":"","AEOUT":"RECOVERED/RESOLVED","ASTDT":"2013-11-16","AENDT":"2013-11-16","ASTDY":23,"AENDY":23,"TRTEMFL":"Y","AOCC01FL":"Y","AOCCFL":"Y","TRTP":"Xanomeline High Dose","TRT01P":"Xanomeline High Dose","TRT01PN":null,"TRT01A":"Xanomeline High Dose","SITEGR1":900,"SAFFL":"Y"},{"STUDYID":"CDISCPILOT01","USUBJID":"01-703-1076","AESEQ":2,"AETERM":"BENIGN PROSTATIC HYPERPLASIA","AEDECOD":"BENIGN PROSTATIC HYPERPLASIA","AESOC":"REPRODUCTIVE SYSTEM AND BREAST DISORDERS","AESOCCD":null,"ASEV":"MODERATE","ASEVN":2,"AESER":"N","AREL":"NONE","AEACN":"","AEOUT":"NOT RECOVERED/NOT RESOLVED","ASTDT":"2013-11-20","AENDT":null,"ASTDY":27,"AENDY":null,"TRTEMFL":"Y","AOCC01FL":"Y","AOCCFL":null,"TRTP":"Xanomeline High Dose","TRT01P":"Xanomeline High Dose","TRT01PN":null,"TRT01A":"Xanomeline High Dose","SITEGR1":900,"SAFFL":"Y"},{"STUDYID":"CDISCPILOT01","USUBJID":"01-703-1076","AESEQ":4,"AETERM":"APPLICATION SITE PRURITUS","AEDECOD":"APPLICATION SITE PRURITUS","AESOC":"GENERAL DISORDERS AND ADMINISTRATION SITE CONDITIONS","AESOCCD":null,"ASEV":"MILD","ASEVN":1,"AESER":"N","AREL":"PROBABLE","AEACN":"","AEOUT":"NOT RECOVERED/NOT RESOLVED","ASTDT":"2013-11-23","AENDT":null,"ASTDY":30,"AENDY":null,"TRTEMFL":"Y","AOCC01FL":null,"AOCCFL":null,"TRTP":"Xanomeline High Dose","TRT01P":"Xanomeline High Dose","TRT01PN":null,"TRT01A":"Xanomeline High Dose","SITEGR1":900,"SAFFL":"Y"},{"STUDYID":"CDISCPILOT01","USUBJID":"01-703-1076","AESEQ":5,"AETERM":"APPLICATION SITE DERMATITIS","AEDECOD":"APPLICATION SITE DERMATITIS","AESOC":"GENERAL DISORDERS AND ADMINISTRATION SITE CONDITIONS","AESOCCD":null,"ASEV":"MILD","ASEVN":1,"AESER":"N","AREL":"PROBABLE","AEACN":"","AEOUT":"NOT RECOVERED/NOT RESOLVED","ASTDT":"2013-11-23","AENDT":null,"ASTDY":30,"AENDY":null,"TRTEMFL":"Y","AOCC01FL":"Y","AOCCFL":null,"TRTP":"Xanomeline High Dose","TRT01P":"Xanomeline High Dose","TRT01PN":null,"TRT01A":"Xanomeline High Dose","SITEGR1":900,"SAFFL":"Y"},{"STUDYID":"CDISCPILOT01","USUBJID":"01-703-1076","AESEQ":7,"AETERM":"APPLICATION SITE PRURITUS","AEDECOD":"APPLICATION SITE PRURITUS","AESOC":"GENERAL DISORDERS AND ADMINISTRATION SITE CONDITIONS","AESOCCD":null,"ASEV":"MODERATE","ASEVN":2,"AESER":"N","AREL":"PROBABLE","AEACN":"","AEOUT":"NOT RECOVERED/NOT RESOLVED","ASTDT":"2013-11-23","AENDT":null,"ASTDY":30,"AENDY":null,"TRTEMFL":"Y","AOCC01FL":"Y","AOCCFL":null,"TRTP":"Xanomeline High Dose","TRT01P":"Xanomeline High Dose","TRT01PN":null,"TRT01A":"Xanomeline High Dose","SITEGR1":900,"SAFFL":"Y"},{"STUDYID":"CDISCPILOT01","USUBJID":"01-703-1076","AESEQ":6,"AETERM":"HYPERHIDROSIS","AEDECOD":"HYPERHIDROSIS","AESOC":"SKIN AND SUBCUTANEOUS TISSUE DISORDERS","AESOCCD":null,"ASEV":"MILD","ASEVN":1,"AESER":"N","AREL":"POSSIBLE","AEACN":"","AEOUT":"NOT RECOVERED/NOT RESOLVED","ASTDT":"2013-11-25","AENDT":null,"ASTDY":32,"AENDY":null,"TRTEMFL":"Y","AOCC01FL":"Y","AOCCFL":null,"TRTP":"Xanomeline High Dose","TRT01P":"Xanomeline High Dose","TRT01PN":null,"TRT01A":"Xanomeline High Dose","SITEGR1":900,"SAFFL":"Y"},{"STUDYID":"CDISCPILOT01","USUBJID":"01-703-1076","AESEQ":3,"AETERM":"HYPERCHOLESTEROLAEMIA","AEDECOD":"HYPERCHOLESTEROLAEMIA","AESOC":"METABOLISM AND NUTRITION DISORDERS","AESOCCD":null,"ASEV":"MODERATE","ASEVN":2,"AESER":"N","AREL":"NONE","AEACN":"","AEOUT":"NOT RECOVERED/NOT RESOLVED","ASTDT":null,"AENDT":null,"ASTDY":null,"AENDY":null,"TRTEMFL":"N","AOCC01FL":null,"AOCCFL":null,"TRTP":"Xanomeline High Dose","TRT01P":"Xanomeline High Dose","TRT01PN":null,"TRT01A":"Xanomeline High Dose","SITEGR1":900,"SAFFL":"Y"},{"STUDYID":"CDISCPILOT01","USUBJID":"01-703-1086","AESEQ":1,"AETERM":"APPLICATION SITE IRRITATION","AEDECOD":"APPLICATION SITE IRRITATION","AESOC":"GENERAL DISORDERS AND ADMINISTRATION SITE CONDITIONS","AESOCCD":null,"ASEV":"MILD","ASEVN":1,"AESER":"N","AREL":"PROBABLE","AEACN":"","AEOUT":"NOT RECOVERED/NOT RESOLVED","ASTDT":"2012-09-13","AENDT":"2013-01-02","ASTDY":12,"AENDY":123,"TRTEMFL":"Y","AOCC01FL":null,"AOCCFL":"Y","TRTP":"Xanomeline Low Dose","TRT01P":"Xanomeline Low Dose","TRT01PN":null,"TRT01A":"Xanomeline Low Dose","SITEGR1":900,"SAFFL":"Y"},{"STUDYID":"CDISCPILOT01","USUBJID":"01-703-1086","AESEQ":2,"AETERM":"APPLICATION SITE IRRITATION","AEDECOD":"APPLICATION SITE IRRITATION","AESOC":"GENERAL DISORDERS AND ADMINISTRATION SITE CONDITIONS","AESOCCD":null,"ASEV":"MODERATE","ASEVN":2,"AESER":"N","AREL":"PROBABLE","AEACN":"","AEOUT":"NOT RECOVERED/NOT RESOLVED","ASTDT":"2012-09-13","AENDT":"2013-01-02","ASTDY":12,"AENDY":123,"TRTEMFL":"Y","AOCC01FL":null,"AOCCFL":null,"TRTP":"Xanomeline Low Dose","TRT01P":"Xanomeline Low Dose","TRT01PN":null,"TRT01A":"Xanomeline Low Dose","SITEGR1":900,"SAFFL":"Y"},{"STUDYID":"CDISCPILOT01","USUBJID":"01-703-1086","AESEQ":3,"AETERM":"APPLICATION SITE IRRITATION","AEDECOD":"APPLICATION SITE IRRITATION","AESOC":"GENERAL DISORDERS AND ADMINISTRATION SITE CONDITIONS","AESOCCD":null,"ASEV":"SEVERE","ASEVN":3,"AESER":"N","AREL":"PROBABLE","AEACN":"","AEOUT":"NOT RECOVERED/NOT RESOLVED","ASTDT":"2012-09-13","AENDT":"2013-01-02","ASTDY":12,"AENDY":123,"TRTEMFL":"Y","AOCC01FL":"Y","AOCCFL":null,"TRTP":"Xanomeline Low Dose","TRT01P":"Xanomeline Low Dose","TRT01PN":null,"TRT01A":"Xanomeline Low Dose","SITEGR1":900,"SAFFL":"Y"},{"STUDYID":"CDISCPILOT01","USUBJID":"01-703-1086","AESEQ":6,"AETERM":"APPLICATION SITE IRRITATION","AEDECOD":"APPLICATION SITE IRRITATION","AESOC":"GENERAL DISORDERS AND ADMINISTRATION SITE CONDITIONS","AESOCCD":null,"ASEV":"MILD","ASEVN":1,"AESER":"N","AREL":"PROBABLE","AEACN":"","AEOUT":"RECOVERED/RESOLVED","ASTDT":"2012-09-13","AENDT":"2013-01-02","ASTDY":12,"AENDY":123,"TRTEMFL":"Y","AOCC01FL":null,"AOCCFL":null,"TRTP":"Xanomeline Low Dose","TRT01P":"Xanomeline Low Dose","TRT01PN":null,"TRT01A":"Xanomeline Low Dose","SITEGR1":900,"SAFFL":"Y"},{"STUDYID":"CDISCPILOT01","USUBJID":"01-703-1086","AESEQ":4,"AETERM":"CHILLS","AEDECOD":"CHILLS","AESOC":"GENERAL DISORDERS AND ADMINISTRATION SITE CONDITIONS","AESOCCD":null,"ASEV":"MILD","ASEVN":1,"AESER":"N","AREL":"POSSIBLE","AEACN":"","AEOUT":"NOT RECOVERED/NOT RESOLVED","ASTDT":"2012-10-09","AENDT":"2012-10-15","ASTDY":38,"AENDY":44,"TRTEMFL":"Y","AOCC01FL":"Y","AOCCFL":null,"TRTP":"Xanomeline Low Dose","TRT01P":"Xanomeline Low Dose","TRT01PN":null,"TRT01A":"Xanomeline Low Dose","SITEGR1":900,"SAFFL":"Y"},{"STUDYID":"CDISCPILOT01","USUBJID":"01-703-1086","AESEQ":5,"AETERM":"CHILLS","AEDECOD":"CHILLS","AESOC":"GENERAL DISORDERS AND ADMINISTRATION SITE CONDITIONS","AESOCCD":null,"ASEV":"MILD","ASEVN":1,"AESER":"N","AREL":"POSSIBLE","AEACN":"","AEOUT":"RECOVERED/RESOLVED","ASTDT":"2012-10-09","AENDT":"2012-10-15","ASTDY":38,"AENDY":44,"TRTEMFL":"Y","AOCC01FL":null,"AOCCFL":null,"TRTP":"Xanomeline Low Dose","TRT01P":"Xanomeline Low Dose","TRT01PN":null,"TRT01A":"Xanomeline Low Dose","SITEGR1":900,"SAFFL":"Y"},{"STUDYID":"CDISCPILOT01","USUBJID":"01-703-1100","AESEQ":6,"AETERM":"OEDEMA PERIPHERAL","AEDECOD":"OEDEMA PERIPHERAL","AESOC":"GENERAL DISORDERS AND ADMINISTRATION SITE CONDITIONS","AESOCCD":null,"ASEV":"MODERATE","ASEVN":2,"AESER":"N","AREL":"REMOTE","AEACN":"","AEOUT":"NOT RECOVERED/NOT RESOLVED","ASTDT":"2013-02-28","AENDT":"2013-09-14","ASTDY":-13,"AENDY":186,"TRTEMFL":"N","AOCC01FL":null,"AOCCFL":null,"TRTP":"Placebo","TRT01P":"Placebo","TRT01PN":null,"TRT01A":"Placebo","SITEGR1":900,"SAFFL":"Y"},{"STUDYID":"CDISCPILOT01","USUBJID":"01-703-1100","AESEQ":8,"AETERM":"OEDEMA PERIPHERAL","AEDECOD":"OEDEMA PERIPHERAL","AESOC":"GENERAL DISORDERS AND ADMINISTRATION SITE CONDITIONS","AESOCCD":null,"ASEV":"MODERATE","ASEVN":2,"AESER":"N","AREL":"REMOTE","AEACN":"","AEOUT":"RECOVERED/RESOLVED","ASTDT":"2013-02-28","AENDT":"2013-09-14","ASTDY":-13,"AENDY":186,"TRTEMFL":"N","AOCC01FL":null,"AOCCFL":null,"TRTP":"Placebo","TRT01P":"Placebo","TRT01PN":null,"TRT01A":"Placebo","SITEGR1":900,"SAFFL":"Y"},{"STUDYID":"CDISCPILOT01","USUBJID":"01-703-1100","AESEQ":1,"AETERM":"APPLICATION SITE IRRITATION","AEDECOD":"APPLICATION SITE IRRITATION","AESOC":"GENERAL DISORDERS AND ADMINISTRATION SITE CONDITIONS","AESOCCD":null,"ASEV":"MODERATE","ASEVN":2,"AESER":"N","AREL":"PROBABLE","AEACN":"","AEOUT":"NOT RECOVERED/NOT RESOLVED","ASTDT":"2013-04-05","AENDT":"2013-04-16","ASTDY":24,"AENDY":35,"TRTEMFL":"Y","AOCC01FL":"Y","AOCCFL":null,"TRTP":"Placebo","TRT01P":"Placebo","TRT01PN":null,"TRT01A":"Placebo","SITEGR1":900,"SAFFL":"Y"},{"STUDYID":"CDISCPILOT01","USUBJID":"01-703-1100","AESEQ":2,"AETERM":"APPLICATION SITE IRRITATION","AEDECOD":"APPLICATION SITE IRRITATION","AESOC":"GENERAL DISORDERS AND ADMINISTRATION SITE CONDITIONS","AESOCCD":null,"ASEV":"MILD","ASEVN":1,"AESER":"N","AREL":"PROBABLE","AEACN":"","AEOUT":"NOT RECOVERED/NOT RESOLVED","ASTDT":"2013-04-05","AENDT":"2013-04-16","ASTDY":24,"AENDY":35,"TRTEMFL":"Y","AOCC01FL":null,"AOCCFL":null,"TRTP":"Placebo","TRT01P":"Placebo","TRT01PN":null,"TRT01A":"Placebo","SITEGR1":900,"SAFFL":"Y"},{"STUDYID":"CDISCPILOT01","USUBJID":"01-703-1100","AESEQ":3,"AETERM":"APPLICATION SITE IRRITATION","AEDECOD":"APPLICATION SITE IRRITATION","AESOC":"GENERAL DISORDERS AND ADMINISTRATION SITE CONDITIONS","AESOCCD":null,"ASEV":"MILD","ASEVN":1,"AESER":"N","AREL":"PROBABLE","AEACN":"","AEOUT":"RECOVERED/RESOLVED","ASTDT":"2013-04-05","AENDT":"2013-04-16","ASTDY":24,"AENDY":35,"TRTEMFL":"Y","AOCC01FL":null,"AOCCFL":null,"TRTP":"Placebo","TRT01P":"Placebo","TRT01PN":null,"TRT01A":"Placebo","SITEGR1":900,"SAFFL":"Y"},{"STUDYID":"CDISCPILOT01","USUBJID":"01-703-1100","AESEQ":4,"AETERM":"CATARACT OPERATION","AEDECOD":"CATARACT OPERATION","AESOC":"SURGICAL AND MEDICAL PROCEDURES","AESOCCD":null,"ASEV":"MODERATE","ASEVN":2,"AESER":"N","AREL":"NONE","AEACN":"","AEOUT":"RECOVERED/RESOLVED","ASTDT":"2013-04-25","AENDT":"2013-04-25","ASTDY":44,"AENDY":44,"TRTEMFL":"Y","AOCC01FL":"Y","AOCCFL":null,"TRTP":"Placebo","TRT01P":"Placebo","TRT01PN":null,"TRT01A":"Placebo","SITEGR1":900,"SAFFL":"Y"},{"STUDYID":"CDISCPILOT01","USUBJID":"01-703-1100","AESEQ":5,"AETERM":"UPPER RESPIRATORY TRACT INFECTION","AEDECOD":"UPPER RESPIRATORY TRACT INFECTION","AESOC":"INFECTIONS AND INFESTATIONS","AESOCCD":null,"ASEV":"MODERATE","ASEVN":2,"AESER":"N","AREL":"REMOTE","AEACN":"","AEOUT":"RECOVERED/RESOLVED","ASTDT":"2013-05-27","AENDT":"2013-06-03","ASTDY":76,"AENDY":83,"TRTEMFL":"Y","AOCC01FL":"Y","AOCCFL":null,"TRTP":"Placebo","TRT01P":"Placebo","TRT01PN":null,"TRT01A":"Placebo","SITEGR1":900,"SAFFL":"Y"},{"STUDYID":"CDISCPILOT01","USUBJID":"01-703-1100","AESEQ":7,"AETERM":"OEDEMA PERIPHERAL","AEDECOD":"OEDEMA PERIPHERAL","AESOC":"GENERAL DISORDERS AND ADMINISTRATION SITE CONDITIONS","AESOCCD":null,"ASEV":"MILD","ASEVN":1,"AESER":"N","AREL":"REMOTE","AEACN":"","AEOUT":"NOT RECOVERED/NOT RESOLVED","ASTDT":"2013-07-17","AENDT":"2013-09-14","ASTDY":127,"AENDY":186,"TRTEMFL":"Y","AOCC01FL":null,"AOCCFL":null,"TRTP":"Placebo","TRT01P":"Placebo","TRT01PN":null,"TRT01A":"Placebo","SITEGR1":900,"SAFFL":"Y"},{"STUDYID":"CDISCPILOT01","USUBJID":"01-703-1100","AESEQ":9,"AETERM":"OEDEMA PERIPHERAL","AEDECOD":"OEDEMA PERIPHERAL","AESOC":"GENERAL DISORDERS AND ADMINISTRATION SITE CONDITIONS","AESOCCD":null,"ASEV":"MILD","ASEVN":1,"AESER":"N","AREL":"REMOTE","AEACN":"","AEOUT":"RECOVERED/RESOLVED","ASTDT":"2013-07-17","AENDT":"2013-09-14","ASTDY":127,"AENDY":186,"TRTEMFL":"Y","AOCC01FL":null,"AOCCFL":null,"TRTP":"Placebo","TRT01P":"Placebo","TRT01PN":null,"TRT01A":"Placebo","SITEGR1":900,"SAFFL":"Y"},{"STUDYID":"CDISCPILOT01","USUBJID":"01-703-1119","AESEQ":1,"AETERM":"APPLICATION SITE IRRITATION","AEDECOD":"APPLICATION SITE IRRITATION","AESOC":"GENERAL DISORDERS AND ADMINISTRATION SITE CONDITIONS","AESOCCD":null,"ASEV":"MODERATE","ASEVN":2,"AESER":"N","AREL":"PROBABLE","AEACN":"","AEOUT":"NOT RECOVERED/NOT RESOLVED","ASTDT":"2013-03-16","AENDT":null,"ASTDY":25,"AENDY":null,"TRTEMFL":"Y","AOCC01FL":null,"AOCCFL":"Y","TRTP":"Xanomeline Low Dose","TRT01P":"Xanomeline Low Dose","TRT01PN":null,"TRT01A":"Xanomeline Low Dose","SITEGR1":900,"SAFFL":"Y"},{"STUDYID":"CDISCPILOT01","USUBJID":"01-703-1119","AESEQ":2,"AETERM":"APPLICATION SITE IRRITATION","AEDECOD":"APPLICATION SITE IRRITATION","AESOC":"GENERAL DISORDERS AND ADMINISTRATION SITE CONDITIONS","AESOCCD":null,"ASEV":"SEVERE","ASEVN":3,"AESER":"N","AREL":"PROBABLE","AEACN":"","AEOUT":"NOT RECOVERED/NOT RESOLVED","ASTDT":"2013-03-16","AENDT":null,"ASTDY":25,"AENDY":null,"TRTEMFL":"Y","AOCC01FL":"Y","AOCCFL":null,"TRTP":"Xanomeline Low Dose","TRT01P":"Xanomeline Low Dose","TRT01PN":null,"TRT01A":"Xanomeline Low Dose","SITEGR1":900,"SAFFL":"Y"},{"STUDYID":"CDISCPILOT01","USUBJID":"01-703-1119","AESEQ":3,"AETERM":"PRURITUS","AEDECOD":"PRURITUS","AESOC":"SKIN AND SUBCUTANEOUS TISSUE DISORDERS","AESOCCD":null,"ASEV":"MODERATE","ASEVN":2,"AESER":"N","AREL":"PROBABLE","AEACN":"","AEOUT":"NOT RECOVERED/NOT RESOLVED","ASTDT":"2013-05-04","AENDT":null,"ASTDY":74,"AENDY":null,"TRTEMFL":"Y","AOCC01FL":null,"AOCCFL":null,"TRTP":"Xanomeline Low Dose","TRT01P":"Xanomeline Low Dose","TRT01PN":null,"TRT01A":"Xanomeline Low Dose","SITEGR1":900,"SAFFL":"Y"},{"STUDYID":"CDISCPILOT01","USUBJID":"01-703-1119","AESEQ":4,"AETERM":"PRURITUS","AEDECOD":"PRURITUS","AESOC":"SKIN AND SUBCUTANEOUS TISSUE DISORDERS","AESOCCD":null,"ASEV":"SEVERE","ASEVN":3,"AESER":"N","AREL":"PROBABLE","AEACN":"","AEOUT":"NOT RECOVERED/NOT RESOLVED","ASTDT":"2013-05-04","AENDT":null,"ASTDY":74,"AENDY":null,"TRTEMFL":"Y","AOCC01FL":"Y","AOCCFL":null,"TRTP":"Xanomeline Low Dose","TRT01P":"Xanomeline Low Dose","TRT01PN":null,"TRT01A":"Xanomeline Low Dose","SITEGR1":900,"SAFFL":"Y"},{"STUDYID":"CDISCPILOT01","USUBJID":"01-703-1175","AESEQ":1,"AETERM":"ATRIOVENTRICULAR BLOCK SECOND DEGREE","AEDECOD":"ATRIOVENTRICULAR BLOCK SECOND DEGREE","AESOC":"CARDIAC DISORDERS","AESOCCD":null,"ASEV":"SEVERE","ASEVN":3,"AESER":"N","AREL":"NONE","AEACN":"","AEOUT":"NOT RECOVERED/NOT RESOLVED","ASTDT":"2013-12-18","AENDT":null,"ASTDY":-2,"AENDY":null,"TRTEMFL":"N","AOCC01FL":null,"AOCCFL":null,"TRTP":"Placebo","TRT01P":"Placebo","TRT01PN":null,"TRT01A":"Placebo","SITEGR1":900,"SAFFL":"Y"},{"STUDYID":"CDISCPILOT01","USUBJID":"01-703-1182","AESEQ":1,"AETERM":"APPLICATION SITE ERYTHEMA","AEDECOD":"APPLICATION SITE ERYTHEMA","AESOC":"GENERAL DISORDERS AND ADMINISTRATION SITE CONDITIONS","AESOCCD":null,"ASEV":"MILD","ASEVN":1,"AESER":"N","AREL":"POSSIBLE","AEACN":"","AEOUT":"NOT RECOVERED/NOT RESOLVED","ASTDT":"2013-10-31","AENDT":null,"ASTDY":15,"AENDY":null,"TRTEMFL":"Y","AOCC01FL":null,"AOCCFL":"Y","TRTP":"Xanomeline Low Dose","TRT01P":"Xanomeline Low Dose","TRT01PN":null,"TRT01A":"Xanomeline Low Dose","SITEGR1":900,"SAFFL":"Y"},{"STUDYID":"CDISCPILOT01","USUBJID":"01-703-1182","AESEQ":2,"AETERM":"APPLICATION SITE ERYTHEMA","AEDECOD":"APPLICATION SITE ERYTHEMA","AESOC":"GENERAL DISORDERS AND ADMINISTRATION SITE CONDITIONS","AESOCCD":null,"ASEV":"MODERATE","ASEVN":2,"AESER":"N","AREL":"POSSIBLE","AEACN":"","AEOUT":"NOT RECOVERED/NOT RESOLVED","ASTDT":"2013-10-31","AENDT":null,"ASTDY":15,"AENDY":null,"TRTEMFL":"Y","AOCC01FL":"Y","AOCCFL":null,"TRTP":"Xanomeline Low Dose","TRT01P":"Xanomeline Low Dose","TRT01PN":null,"TRT01A":"Xanomeline Low Dose","SITEGR1":900,"SAFFL":"Y"},{"STUDYID":"CDISCPILOT01","USUBJID":"01-703-1182","AESEQ":3,"AETERM":"SOMNOLENCE","AEDECOD":"SOMNOLENCE","AESOC":"NERVOUS SYSTEM DISORDERS","AESOCCD":null,"ASEV":"MILD","ASEVN":1,"AESER":"N","AREL":"REMOTE","AEACN":"","AEOUT":"NOT RECOVERED/NOT RESOLVED","ASTDT":"2013-11-22","AENDT":null,"ASTDY":37,"AENDY":null,"TRTEMFL":"Y","AOCC01FL":null,"AOCCFL":null,"TRTP":"Xanomeline Low Dose","TRT01P":"Xanomeline Low Dose","TRT01PN":null,"TRT01A":"Xanomeline Low Dose","SITEGR1":900,"SAFFL":"Y"},{"STUDYID":"CDISCPILOT01","USUBJID":"01-703-1182","AESEQ":4,"AETERM":"SOMNOLENCE","AEDECOD":"SOMNOLENCE","AESOC":"NERVOUS SYSTEM DISORDERS","AESOCCD":null,"ASEV":"MODERATE","ASEVN":2,"AESER":"N","AREL":"REMOTE","AEACN":"","AEOUT":"NOT RECOVERED/NOT RESOLVED","ASTDT":"2013-11-22","AENDT":null,"ASTDY":37,"AENDY":null,"TRTEMFL":"Y","AOCC01FL":"Y","AOCCFL":null,"TRTP":"Xanomeline Low Dose","TRT01P":"Xanomeline Low Dose","TRT01PN":null,"TRT01A":"Xanomeline Low Dose","SITEGR1":900,"SAFFL":"Y"},{"STUDYID":"CDISCPILOT01","USUBJID":"01-703-1210","AESEQ":1,"AETERM":"DISORIENTATION","AEDECOD":"DISORIENTATION","AESOC":"PSYCHIATRIC DISORDERS","AESOCCD":null,"ASEV":"MILD","ASEVN":1,"AESER":"N","AREL":"REMOTE","AEACN":"","AEOUT":"NOT RECOVERED/NOT RESOLVED","ASTDT":"2013-04-02","AENDT":null,"ASTDY":18,"AENDY":null,"TRTEMFL":"Y","AOCC01FL":"Y","AOCCFL":"Y","TRTP":"Placebo","TRT01P":"Placebo","TRT01PN":null,"TRT01A":"Placebo","SITEGR1":900,"SAFFL":"Y"},{"STUDYID":"CDISCPILOT01","USUBJID":"01-703-1210","AESEQ":2,"AETERM":"DECREASED APPETITE","AEDECOD":"DECREASED APPETITE","AESOC":"METABOLISM AND NUTRITION DISORDERS","AESOCCD":null,"ASEV":"MILD","ASEVN":1,"AESER":"N","AREL":"POSSIBLE","AEACN":"","AEOUT":"NOT RECOVERED/NOT RESOLVED","ASTDT":"2013-05-04","AENDT":null,"ASTDY":50,"AENDY":null,"TRTEMFL":"Y","AOCC01FL":null,"AOCCFL":null,"TRTP":"Placebo","TRT01P":"Placebo","TRT01PN":null,"TRT01A":"Placebo","SITEGR1":900,"SAFFL":"Y"},{"STUDYID":"CDISCPILOT01","USUBJID":"01-703-1210","AESEQ":3,"AETERM":"DECREASED APPETITE","AEDECOD":"DECREASED APPETITE","AESOC":"METABOLISM AND NUTRITION DISORDERS","AESOCCD":null,"ASEV":"MODERATE","ASEVN":2,"AESER":"N","AREL":"POSSIBLE","AEACN":"","AEOUT":"NOT RECOVERED/NOT RESOLVED","ASTDT":"2013-05-04","AENDT":null,"ASTDY":50,"AENDY":null,"TRTEMFL":"Y","AOCC01FL":"Y","AOCCFL":null,"TRTP":"Placebo","TRT01P":"Placebo","TRT01PN":null,"TRT01A":"Placebo","SITEGR1":900,"SAFFL":"Y"},{"STUDYID":"CDISCPILOT01","USUBJID":"01-703-1258","AESEQ":1,"AETERM":"UPPER RESPIRATORY TRACT INFECTION","AEDECOD":"UPPER RESPIRATORY TRACT INFECTION","AESOC":"INFECTIONS AND INFESTATIONS","AESOCCD":null,"ASEV":"MILD","ASEVN":1,"AESER":"N","AREL":"NONE","AEACN":"","AEOUT":"NOT RECOVERED/NOT RESOLVED","ASTDT":"2012-08-11","AENDT":"2012-08-19","ASTDY":23,"AENDY":31,"TRTEMFL":"Y","AOCC01FL":"Y","AOCCFL":"Y","TRTP":"Xanomeline High Dose","TRT01P":"Xanomeline High Dose","TRT01PN":null,"TRT01A":"Xanomeline High Dose","SITEGR1":900,"SAFFL":"Y"},{"STUDYID":"CDISCPILOT01","USUBJID":"01-703-1258","AESEQ":3,"AETERM":"UPPER RESPIRATORY TRACT INFECTION","AEDECOD":"UPPER RESPIRATORY TRACT INFECTION","AESOC":"INFECTIONS AND INFESTATIONS","AESOCCD":null,"ASEV":"MILD","ASEVN":1,"AESER":"N","AREL":"NONE","AEACN":"","AEOUT":"RECOVERED/RESOLVED","ASTDT":"2012-08-11","AENDT":"2012-08-19","ASTDY":23,"AENDY":31,"TRTEMFL":"Y","AOCC01FL":null,"AOCCFL":null,"TRTP":"Xanomeline High Dose","TRT01P":"Xanomeline High Dose","TRT01PN":null,"TRT01A":"Xanomeline High Dose","SITEGR1":900,"SAFFL":"Y"},{"STUDYID":"CDISCPILOT01","USUBJID":"01-703-1258","AESEQ":4,"AETERM":"APPLICATION SITE DERMATITIS","AEDECOD":"APPLICATION SITE DERMATITIS","AESOC":"GENERAL DISORDERS AND ADMINISTRATION SITE CONDITIONS","AESOCCD":null,"ASEV":"MILD","ASEVN":1,"AESER":"N","AREL":"PROBABLE","AEACN":"","AEOUT":"NOT RECOVERED/NOT RESOLVED","ASTDT":"2012-09-04","AENDT":"2013-01-25","ASTDY":47,"AENDY":190,"TRTEMFL":"Y","AOCC01FL":null,"AOCCFL":null,"TRTP":"Xanomeline High Dose","TRT01P":"Xanomeline High Dose","TRT01PN":null,"TRT01A":"Xanomeline High Dose","SITEGR1":900,"SAFFL":"Y"},{"STUDYID":"CDISCPILOT01","USUBJID":"01-703-1258","AESEQ":6,"AETERM":"APPLICATION SITE DERMATITIS","AEDECOD":"APPLICATION SITE DERMATITIS","AESOC":"GENERAL DISORDERS AND ADMINISTRATION SITE CONDITIONS","AESOCCD":null,"ASEV":"MODERATE","ASEVN":2,"AESER":"N","AREL":"PROBABLE","AEACN":"","AEOUT":"NOT RECOVERED/NOT RESOLVED","ASTDT":"2012-09-04","AENDT":"2013-01-25","ASTDY":47,"AENDY":190,"TRTEMFL":"Y","AOCC01FL":"Y","AOCCFL":null,"TRTP":"Xanomeline High Dose","TRT01P":"Xanomeline High Dose","TRT01PN":null,"TRT01A":"Xanomeline High Dose","SITEGR1":900,"SAFFL":"Y"},{"STUDYID":"CDISCPILOT01","USUBJID":"01-703-1258","AESEQ":7,"AETERM":"APPLICATION SITE DERMATITIS","AEDECOD":"APPLICATION SITE DERMATITIS","AESOC":"GENERAL DISORDERS AND ADMINISTRATION SITE CONDITIONS","AESOCCD":null,"ASEV":"MILD","ASEVN":1,"AESER":"N","AREL":"PROBABLE","AEACN":"","AEOUT":"RECOVERED/RESOLVED","ASTDT":"2012-09-04","AENDT":"2013-01-25","ASTDY":47,"AENDY":190,"TRTEMFL":"Y","AOCC01FL":null,"AOCCFL":null,"TRTP":"Xanomeline High Dose","TRT01P":"Xanomeline High Dose","TRT01PN":null,"TRT01A":"Xanomeline High Dose","SITEGR1":900,"SAFFL":"Y"},{"STUDYID":"CDISCPILOT01","USUBJID":"01-703-1258","AESEQ":2,"AETERM":"DIZZINESS","AEDECOD":"DIZZINESS","AESOC":"NERVOUS SYSTEM DISORDERS","AESOCCD":null,"ASEV":"MODERATE","ASEVN":2,"AESER":"N","AREL":"NONE","AEACN":"","AEOUT":"NOT RECOVERED/NOT RESOLVED","ASTDT":null,"AENDT":null,"ASTDY":null,"AENDY":null,"TRTEMFL":"N","AOCC01FL":null,"AOCCFL":null,"TRTP":"Xanomeline High Dose","TRT01P":"Xanomeline High Dose","TRT01PN":null,"TRT01A":"Xanomeline High Dose","SITEGR1":900,"SAFFL":"Y"},{"STUDYID":"CDISCPILOT01","USUBJID":"01-703-1258","AESEQ":5,"AETERM":"DIZZINESS","AEDECOD":"DIZZINESS","AESOC":"NERVOUS SYSTEM DISORDERS","AESOCCD":null,"ASEV":"MILD","ASEVN":1,"AESER":"N","AREL":"NONE","AEACN":"","AEOUT":"NOT RECOVERED/NOT RESOLVED","ASTDT":null,"AENDT":null,"ASTDY":null,"AENDY":null,"TRTEMFL":"N","AOCC01FL":null,"AOCCFL":null,"TRTP":"Xanomeline High Dose","TRT01P":"Xanomeline High Dose","TRT01PN":null,"TRT01A":"Xanomeline High Dose","SITEGR1":900,"SAFFL":"Y"},{"STUDYID":"CDISCPILOT01","USUBJID":"01-703-1295","AESEQ":1,"AETERM":"ARTHRITIS","AEDECOD":"ARTHRITIS","AESOC":"MUSCULOSKELETAL AND CONNECTIVE TISSUE DISORDERS","AESOCCD":null,"ASEV":"MODERATE","ASEVN":2,"AESER":"N","AREL":"NONE","AEACN":"","AEOUT":"NOT RECOVERED/NOT RESOLVED","ASTDT":"2013-12-28","AENDT":null,"ASTDY":38,"AENDY":null,"TRTEMFL":"Y","AOCC01FL":"Y","AOCCFL":"Y","TRTP":"Xanomeline High Dose","TRT01P":"Xanomeline High Dose","TRT01PN":null,"TRT01A":"Xanomeline High Dose","SITEGR1":900,"SAFFL":"Y"},{"STUDYID":"CDISCPILOT01","USUBJID":"01-703-1299","AESEQ":1,"AETERM":"UPPER RESPIRATORY TRACT INFECTION","AEDECOD":"UPPER RESPIRATORY TRACT INFECTION","AESOC":"INFECTIONS AND INFESTATIONS","AESOCCD":null,"ASEV":"MILD","ASEVN":1,"AESER":"N","AREL":"NONE","AEACN":"","AEOUT":"NOT RECOVERED/NOT RESOLVED","ASTDT":"2012-09-27","AENDT":"2012-10-06","ASTDY":16,"AENDY":25,"TRTEMFL":"Y","AOCC01FL":"Y","AOCCFL":"Y","TRTP":"Placebo","TRT01P":"Placebo","TRT01PN":null,"TRT01A":"Placebo","SITEGR1":900,"SAFFL":"Y"},{"STUDYID":"CDISCPILOT01","USUBJID":"01-703-1299","AESEQ":2,"AETERM":"UPPER RESPIRATORY TRACT INFECTION","AEDECOD":"UPPER RESPIRATORY TRACT INFECTION","AESOC":"INFECTIONS AND INFESTATIONS","AESOCCD":null,"ASEV":"MILD","ASEVN":1,"AESER":"N","AREL":"NONE","AEACN":"","AEOUT":"RECOVERED/RESOLVED","ASTDT":"2012-09-27","AENDT":"2012-10-06","ASTDY":16,"AENDY":25,"TRTEMFL":"Y","AOCC01FL":null,"AOCCFL":null,"TRTP":"Placebo","TRT01P":"Placebo","TRT01PN":null,"TRT01A":"Placebo","SITEGR1":900,"SAFFL":"Y"},{"STUDYID":"CDISCPILOT01","USUBJID":"01-703-1299","AESEQ":4,"AETERM":"HYPOTENSION","AEDECOD":"HYPOTENSION","AESOC":"VASCULAR DISORDERS","AESOCCD":null,"ASEV":"MILD","ASEVN":1,"AESER":"N","AREL":"REMOTE","AEACN":"","AEOUT":"NOT RECOVERED/NOT RESOLVED","ASTDT":"2013-03-01","AENDT":null,"ASTDY":171,"AENDY":null,"TRTEMFL":"Y","AOCC01FL":null,"AOCCFL":null,"TRTP":"Placebo","TRT01P":"Placebo","TRT01PN":null,"TRT01A":"Placebo","SITEGR1":900,"SAFFL":"Y"},{"STUDYID":"CDISCPILOT01","USUBJID":"01-703-1299","AESEQ":5,"AETERM":"TACHYCARDIA","AEDECOD":"TACHYCARDIA","AESOC":"CARDIAC DISORDERS","AESOCCD":null,"ASEV":"MILD","ASEVN":1,"AESER":"N","AREL":"REMOTE","AEACN":"","AEOUT":"NOT RECOVERED/NOT RESOLVED","ASTDT":"2013-03-01","AENDT":null,"ASTDY":171,"AENDY":null,"TRTEMFL":"Y","AOCC01FL":null,"AOCCFL":null,"TRTP":"Placebo","TRT01P":"Placebo","TRT01PN":null,"TRT01A":"Placebo","SITEGR1":900,"SAFFL":"Y"},{"STUDYID":"CDISCPILOT01","USUBJID":"01-703-1299","AESEQ":6,"AETERM":"HYPOTENSION","AEDECOD":"HYPOTENSION","AESOC":"VASCULAR DISORDERS","AESOCCD":null,"ASEV":"MODERATE","ASEVN":2,"AESER":"N","AREL":"REMOTE","AEACN":"","AEOUT":"NOT RECOVERED/NOT RESOLVED","ASTDT":"2013-03-01","AENDT":null,"ASTDY":171,"AENDY":null,"TRTEMFL":"Y","AOCC01FL":"Y","AOCCFL":null,"TRTP":"Placebo","TRT01P":"Placebo","TRT01PN":null,"TRT01A":"Placebo","SITEGR1":900,"SAFFL":"Y"},{"STUDYID":"CDISCPILOT01","USUBJID":"01-703-1299","AESEQ":7,"AETERM":"TACHYCARDIA","AEDECOD":"TACHYCARDIA","AESOC":"CARDIAC DISORDERS","AESOCCD":null,"ASEV":"MODERATE","ASEVN":2,"AESER":"N","AREL":"REMOTE","AEACN":"","AEOUT":"NOT RECOVERED/NOT RESOLVED","ASTDT":"2013-03-01","AENDT":null,"ASTDY":171,"AENDY":null,"TRTEMFL":"Y","AOCC01FL":"Y","AOCCFL":null,"TRTP":"Placebo","TRT01P":"Placebo","TRT01PN":null,"TRT01A":"Placebo","SITEGR1":900,"SAFFL":"Y"},{"STUDYID":"CDISCPILOT01","USUBJID":"01-703-1299","AESEQ":8,"AETERM":"MYOCARDIAL INFARCTION","AEDECOD":"MYOCARDIAL INFARCTION","AESOC":"CARDIAC DISORDERS","AESOCCD":null,"ASEV":"MODERATE","ASEVN":2,"AESER":"N","AREL":"REMOTE","AEACN":"","AEOUT":"NOT RECOVERED/NOT RESOLVED","ASTDT":"2013-03-13","AENDT":null,"ASTDY":183,"AENDY":null,"TRTEMFL":"Y","AOCC01FL":"Y","AOCCFL":null,"TRTP":"Placebo","TRT01P":"Placebo","TRT01PN":null,"TRT01A":"Placebo","SITEGR1":900,"SAFFL":"Y"},{"STUDYID":"CDISCPILOT01","USUBJID":"01-703-1299","AESEQ":3,"AETERM":"GLAUCOMA","AEDECOD":"GLAUCOMA","AESOC":"EYE DISORDERS","AESOCCD":null,"ASEV":"MODERATE","ASEVN":2,"AESER":"N","AREL":"NONE","AEACN":"","AEOUT":"NOT RECOVERED/NOT RESOLVED","ASTDT":null,"AENDT":null,"ASTDY":null,"AENDY":null,"TRTEMFL":"N","AOCC01FL":null,"AOCCFL":null,"TRTP":"Placebo","TRT01P":"Placebo","TRT01PN":null,"TRT01A":"Placebo","SITEGR1":900,"SAFFL":"Y"},{"STUDYID":"CDISCPILOT01","USUBJID":"01-703-1335","AESEQ":1,"AETERM":"ATRIOVENTRICULAR BLOCK SECOND DEGREE","AEDECOD":"ATRIOVENTRICULAR BLOCK SECOND DEGREE","AESOC":"CARDIAC DISORDERS","AESOCCD":null,"ASEV":"MILD","ASEVN":1,"AESER":"N","AREL":"NONE","AEACN":"","AEOUT":"NOT RECOVERED/NOT RESOLVED","ASTDT":"2014-03-15","AENDT":"2014-03-30","ASTDY":-2,"AENDY":14,"TRTEMFL":"N","AOCC01FL":null,"AOCCFL":null,"TRTP":"Xanomeline High Dose","TRT01P":"Xanomeline High Dose","TRT01PN":null,"TRT01A":"Xanomeline High Dose","SITEGR1":900,"SAFFL":"Y"},{"STUDYID":"CDISCPILOT01","USUBJID":"01-703-1335","AESEQ":2,"AETERM":"ATRIOVENTRICULAR BLOCK SECOND DEGREE","AEDECOD":"ATRIOVENTRICULAR BLOCK SECOND DEGREE","AESOC":"CARDIAC DISORDERS","AESOCCD":null,"ASEV":"MILD","ASEVN":1,"AESER":"N","AREL":"NONE","AEACN":"","AEOUT":"RECOVERED/RESOLVED","ASTDT":"2014-03-15","AENDT":"2014-03-30","ASTDY":-2,"AENDY":14,"TRTEMFL":"N","AOCC01FL":null,"AOCCFL":null,"TRTP":"Xanomeline High Dose","TRT01P":"Xanomeline High Dose","TRT01PN":null,"TRT01A":"Xanomeline High Dose","SITEGR1":900,"SAFFL":"Y"},{"STUDYID":"CDISCPILOT01","USUBJID":"01-703-1403","AESEQ":1,"AETERM":"WEIGHT DECREASED","AEDECOD":"WEIGHT DECREASED","AESOC":"INVESTIGATIONS","AESOCCD":null,"ASEV":"MODERATE","ASEVN":2,"AESER":"N","AREL":"NONE","AEACN":"","AEOUT":"NOT RECOVERED/NOT RESOLVED","ASTDT":"2012-12-12","AENDT":"2012-12-19","ASTDY":1,"AENDY":8,"TRTEMFL":"Y","AOCC01FL":"Y","AOCCFL":"Y","TRTP":"Xanomeline High Dose","TRT01P":"Xanomeline High Dose","TRT01PN":null,"TRT01A":"Xanomeline Low Dose","SITEGR1":900,"SAFFL":"Y"},{"STUDYID":"CDISCPILOT01","USUBJID":"01-703-1403","AESEQ":5,"AETERM":"WEIGHT DECREASED","AEDECOD":"WEIGHT DECREASED","AESOC":"INVESTIGATIONS","AESOCCD":null,"ASEV":"MODERATE","ASEVN":2,"AESER":"N","AREL":"NONE","AEACN":"","AEOUT":"RECOVERED/RESOLVED","ASTDT":"2012-12-12","AENDT":"2012-12-19","ASTDY":1,"AENDY":8,"TRTEMFL":"Y","AOCC01FL":null,"AOCCFL":null,"TRTP":"Xanomeline High Dose","TRT01P":"Xanomeline High Dose","TRT01PN":null,"TRT01A":"Xanomeline Low Dose","SITEGR1":900,"SAFFL":"Y"},{"STUDYID":"CDISCPILOT01","USUBJID":"01-703-1403","AESEQ":2,"AETERM":"DIARRHOEA","AEDECOD":"DIARRHOEA","AESOC":"GASTROINTESTINAL DISORDERS","AESOCCD":null,"ASEV":"MODERATE","ASEVN":2,"AESER":"N","AREL":"PROBABLE","AEACN":"","AEOUT":"RECOVERED/RESOLVED","ASTDT":"2012-12-13","AENDT":"2012-12-14","ASTDY":2,"AENDY":3,"TRTEMFL":"Y","AOCC01FL":"Y","AOCCFL":null,"TRTP":"Xanomeline High Dose","TRT01P":"Xanomeline High Dose","TRT01PN":null,"TRT01A":"Xanomeline Low Dose","SITEGR1":900,"SAFFL":"Y"},{"STUDYID":"CDISCPILOT01","USUBJID":"01-703-1403","AESEQ":3,"AETERM":"VOMITING","AEDECOD":"VOMITING","AESOC":"GASTROINTESTINAL DISORDERS","AESOCCD":null,"ASEV":"MODERATE","ASEVN":2,"AESER":"N","AREL":"PROBABLE","AEACN":"","AEOUT":"RECOVERED/RESOLVED","ASTDT":"2012-12-13","AENDT":"2012-12-14","ASTDY":2,"AENDY":3,"TRTEMFL":"Y","AOCC01FL":"Y","AOCCFL":null,"TRTP":"Xanomeline High Dose","TRT01P":"Xanomeline High Dose","TRT01PN":null,"TRT01A":"Xanomeline Low Dose","SITEGR1":900,"SAFFL":"Y"},{"STUDYID":"CDISCPILOT01","USUBJID":"01-703-1403","AESEQ":4,"AETERM":"CHEST DISCOMFORT","AEDECOD":"CHEST DISCOMFORT","AESOC":"GENERAL DISORDERS AND ADMINISTRATION SITE CONDITIONS","AESOCCD":null,"ASEV":"MILD","ASEVN":1,"AESER":"N","AREL":"PROBABLE","AEACN":"","AEOUT":"RECOVERED/RESOLVED","ASTDT":"2012-12-15","AENDT":"2012-12-16","ASTDY":4,"AENDY":5,"TRTEMFL":"Y","AOCC01FL":"Y","AOCCFL":null,"TRTP":"Xanomeline High Dose","TRT01P":"Xanomeline High Dose","TRT01PN":null,"TRT01A":"Xanomeline Low Dose","SITEGR1":900,"SAFFL":"Y"},{"STUDYID":"CDISCPILOT01","USUBJID":"01-703-1439","AESEQ":1,"AETERM":"APPLICATION SITE IRRITATION","AEDECOD":"APPLICATION SITE IRRITATION","AESOC":"GENERAL DISORDERS AND ADMINISTRATION SITE CONDITIONS","AESOCCD":null,"ASEV":"MILD","ASEVN":1,"AESER":"N","AREL":"PROBABLE","AEACN":"","AEOUT":"NOT RECOVERED/NOT RESOLVED","ASTDT":"2014-04-24","AENDT":null,"ASTDY":44,"AENDY":null,"TRTEMFL":"Y","AOCC01FL":null,"AOCCFL":"Y","TRTP":"Xanomeline High Dose","TRT01P":"Xanomeline High Dose","TRT01PN":null,"TRT01A":"Xanomeline High Dose","SITEGR1":900,"SAFFL":"Y"},{"STUDYID":"CDISCPILOT01","USUBJID":"01-703-1439","AESEQ":2,"AETERM":"APPLICATION SITE IRRITATION","AEDECOD":"APPLICATION SITE IRRITATION","AESOC":"GENERAL DISORDERS AND ADMINISTRATION SITE CONDITIONS","AESOCCD":null,"ASEV":"MODERATE","ASEVN":2,"AESER":"N","AREL":"PROBABLE","AEACN":"","AEOUT":"NOT RECOVERED/NOT RESOLVED","ASTDT":"2014-04-24","AENDT":null,"ASTDY":44,"AENDY":null,"TRTEMFL":"Y","AOCC01FL":"Y","AOCCFL":null,"TRTP":"Xanomeline High Dose","TRT01P":"Xanomeline High Dose","TRT01PN":null,"TRT01A":"Xanomeline High Dose","SITEGR1":900,"SAFFL":"Y"},{"STUDYID":"CDISCPILOT01","USUBJID":"01-704-1008","AESEQ":1,"AETERM":"HYPERHIDROSIS","AEDECOD":"HYPERHIDROSIS","AESOC":"SKIN AND SUBCUTANEOUS TISSUE DISORDERS","AESOCCD":null,"ASEV":"MILD","ASEVN":1,"AESER":"N","AREL":"POSSIBLE","AEACN":"","AEOUT":"NOT RECOVERED/NOT RESOLVED","ASTDT":"2013-01-30","AENDT":null,"ASTDY":18,"AENDY":null,"TRTEMFL":"Y","AOCC01FL":"Y","AOCCFL":"Y","TRTP":"Xanomeline High Dose","TRT01P":"Xanomeline High Dose","TRT01PN":null,"TRT01A":"Xanomeline High Dose","SITEGR1":900,"SAFFL":"Y"},{"STUDYID":"CDISCPILOT01","USUBJID":"01-704-1008","AESEQ":2,"AETERM":"TRANSIENT ISCHAEMIC ATTACK","AEDECOD":"TRANSIENT ISCHAEMIC ATTACK","AESOC":"NERVOUS SYSTEM DISORDERS","AESOCCD":null,"ASEV":"SEVERE","ASEVN":3,"AESER":"N","AREL":"NONE","AEACN":"","AEOUT":"RECOVERED/RESOLVED","ASTDT":"2013-02-21","AENDT":"2013-02-21","ASTDY":40,"AENDY":40,"TRTEMFL":"Y","AOCC01FL":"Y","AOCCFL":null,"TRTP":"Xanomeline High Dose","TRT01P":"Xanomeline High Dose","TRT01PN":null,"TRT01A":"Xanomeline High Dose","SITEGR1":900,"SAFFL":"Y"},{"STUDYID":"CDISCPILOT01","USUBJID":"01-704-1008","AESEQ":3,"AETERM":"SINUS BRADYCARDIA","AEDECOD":"SINUS BRADYCARDIA","AESOC":"CARDIAC DISORDERS","AESOCCD":null,"ASEV":"MODERATE","ASEVN":2,"AESER":"N","AREL":"NONE","AEACN":"","AEOUT":"NOT RECOVERED/NOT RESOLVED","ASTDT":"2013-02-25","AENDT":null,"ASTDY":44,"AENDY":null,"TRTEMFL":"Y","AOCC01FL":"Y","AOCCFL":null,"TRTP":"Xanomeline High Dose","TRT01P":"Xanomeline High Dose","TRT01PN":null,"TRT01A":"Xanomeline High Dose","SITEGR1":900,"SAFFL":"Y"},{"STUDYID":"CDISCPILOT01","USUBJID":"01-704-1009","AESEQ":1,"AETERM":"FATIGUE","AEDECOD":"FATIGUE","AESOC":"GENERAL DISORDERS AND ADMINISTRATION SITE CONDITIONS","AESOCCD":null,"ASEV":"MILD","ASEVN":1,"AESER":"N","AREL":"REMOTE","AEACN":"","AEOUT":"NOT RECOVERED/NOT RESOLVED","ASTDT":"2013-09-05","AENDT":null,"ASTDY":10,"AENDY":null,"TRTEMFL":"Y","AOCC01FL":"Y","AOCCFL":"Y","TRTP":"Xanomeline Low Dose","TRT01P":"Xanomeline Low Dose","TRT01PN":null,"TRT01A":"Xanomeline Low Dose","SITEGR1":900,"SAFFL":"Y"},{"STUDYID":"CDISCPILOT01","USUBJID":"01-704-1009","AESEQ":2,"AETERM":"MALAISE","AEDECOD":"MALAISE","AESOC":"GENERAL DISORDERS AND ADMINISTRATION SITE CONDITIONS","AESOCCD":null,"ASEV":"MILD","ASEVN":1,"AESER":"N","AREL":"POSSIBLE","AEACN":"","AEOUT":"NOT RECOVERED/NOT RESOLVED","ASTDT":"2013-09-05","AENDT":"2013-09-27","ASTDY":10,"AENDY":32,"TRTEMFL":"Y","AOCC01FL":"Y","AOCCFL":null,"TRTP":"Xanomeline Low Dose","TRT01P":"Xanomeline Low Dose","TRT01PN":null,"TRT01A":"Xanomeline Low Dose","SITEGR1":900,"SAFFL":"Y"},{"STUDYID":"CDISCPILOT01","USUBJID":"01-704-1009","AESEQ":4,"AETERM":"MALAISE","AEDECOD":"MALAISE","AESOC":"GENERAL DISORDERS AND ADMINISTRATION SITE CONDITIONS","AESOCCD":null,"ASEV":"MILD","ASEVN":1,"AESER":"N","AREL":"POSSIBLE","AEACN":"","AEOUT":"RECOVERED/RESOLVED","ASTDT":"2013-09-05","AENDT":"2013-09-27","ASTDY":10,"AENDY":32,"TRTEMFL":"Y","AOCC01FL":null,"AOCCFL":null,"TRTP":"Xanomeline Low Dose","TRT01P":"Xanomeline Low Dose","TRT01PN":null,"TRT01A":"Xanomeline Low Dose","SITEGR1":900,"SAFFL":"Y"},{"STUDYID":"CDISCPILOT01","USUBJID":"01-704-1009","AESEQ":3,"AETERM":"RASH","AEDECOD":"RASH","AESOC":"SKIN AND SUBCUTANEOUS TISSUE DISORDERS","AESOCCD":null,"ASEV":"MILD","ASEVN":1,"AESER":"N","AREL":"POSSIBLE","AEACN":"","AEOUT":"NOT RECOVERED/NOT RESOLVED","ASTDT":"2013-09-14","AENDT":null,"ASTDY":19,"AENDY":null,"TRTEMFL":"Y","AOCC01FL":"Y","AOCCFL":null,"TRTP":"Xanomeline Low Dose","TRT01P":"Xanomeline Low Dose","TRT01PN":null,"TRT01A":"Xanomeline Low Dose","SITEGR1":900,"SAFFL":"Y"},{"STUDYID":"CDISCPILOT01","USUBJID":"01-704-1009","AESEQ":5,"AETERM":"DIZZINESS","AEDECOD":"DIZZINESS","AESOC":"NERVOUS SYSTEM DISORDERS","AESOCCD":null,"ASEV":"MILD","ASEVN":1,"AESER":"N","AREL":"REMOTE","AEACN":"","AEOUT":"NOT RECOVERED/NOT RESOLVED","ASTDT":"2013-09-17","AENDT":null,"ASTDY":22,"AENDY":null,"TRTEMFL":"Y","AOCC01FL":"Y","AOCCFL":null,"TRTP":"Xanomeline Low Dose","TRT01P":"Xanomeline Low Dose","TRT01PN":null,"TRT01A":"Xanomeline Low Dose","SITEGR1":900,"SAFFL":"Y"},{"STUDYID":"CDISCPILOT01","USUBJID":"01-704-1009","AESEQ":6,"AETERM":"NAUSEA","AEDECOD":"NAUSEA","AESOC":"GASTROINTESTINAL DISORDERS","AESOCCD":null,"ASEV":"MILD","ASEVN":1,"AESER":"N","AREL":"POSSIBLE","AEACN":"","AEOUT":"RECOVERED/RESOLVED","ASTDT":"2013-09-22","AENDT":"2013-09-23","ASTDY":27,"AENDY":28,"TRTEMFL":"Y","AOCC01FL":"Y","AOCCFL":null,"TRTP":"Xanomeline Low Dose","TRT01P":"Xanomeline Low Dose","TRT01PN":null,"TRT01A":"Xanomeline Low Dose","SITEGR1":900,"SAFFL":"Y"},{"STUDYID":"CDISCPILOT01","USUBJID":"01-704-1010","AESEQ":1,"AETERM":"CYSTITIS","AEDECOD":"CYSTITIS","AESOC":"INFECTIONS AND INFESTATIONS","AESOCCD":null,"ASEV":"MILD","ASEVN":1,"AESER":"N","AREL":"NONE","AEACN":"","AEOUT":"RECOVERED/RESOLVED","ASTDT":"2014-02-27","AENDT":"2014-03-06","ASTDY":7,"AENDY":14,"TRTEMFL":"Y","AOCC01FL":"Y","AOCCFL":"Y","TRTP":"Placebo","TRT01P":"Placebo","TRT01PN":null,"TRT01A":"Placebo","SITEGR1":900,"SAFFL":"Y"},{"STUDYID":"CDISCPILOT01","USUBJID":"01-704-1010","AESEQ":2,"AETERM":"VOMITING","AEDECOD":"VOMITING","AESOC":"GASTROINTESTINAL DISORDERS","AESOCCD":null,"ASEV":"MILD","ASEVN":1,"AESER":"N","AREL":"NONE","AEACN":"","AEOUT":"RECOVERED/RESOLVED","ASTDT":"2014-07-05","AENDT":"2014-07-06","ASTDY":135,"AENDY":136,"TRTEMFL":"Y","AOCC01FL":"Y","AOCCFL":null,"TRTP":"Placebo","TRT01P":"Placebo","TRT01PN":null,"TRT01A":"Placebo","SITEGR1":900,"SAFFL":"Y"},{"STUDYID":"CDISCPILOT01","USUBJID":"01-704-1010","AESEQ":3,"AETERM":"DIARRHOEA","AEDECOD":"DIARRHOEA","AESOC":"GASTROINTESTINAL DISORDERS","AESOCCD":null,"ASEV":"MILD","ASEVN":1,"AESER":"N","AREL":"NONE","AEACN":"","AEOUT":"RECOVERED/RESOLVED","ASTDT":"2014-07-05","AENDT":"2014-07-06","ASTDY":135,"AENDY":136,"TRTEMFL":"Y","AOCC01FL":"Y","AOCCFL":null,"TRTP":"Placebo","TRT01P":"Placebo","TRT01PN":null,"TRT01A":"Placebo","SITEGR1":900,"SAFFL":"Y"},{"STUDYID":"CDISCPILOT01","USUBJID":"01-704-1010","AESEQ":4,"AETERM":"EXCORIATION","AEDECOD":"EXCORIATION","AESOC":"INJURY, POISONING AND PROCEDURAL COMPLICATIONS","AESOCCD":null,"ASEV":"MILD","ASEVN":1,"AESER":"N","AREL":"NONE","AEACN":"","AEOUT":"NOT RECOVERED/NOT RESOLVED","ASTDT":"2014-07-06","AENDT":null,"ASTDY":136,"AENDY":null,"TRTEMFL":"Y","AOCC01FL":"Y","AOCCFL":null,"TRTP":"Placebo","TRT01P":"Placebo","TRT01PN":null,"TRT01A":"Placebo","SITEGR1":900,"SAFFL":"Y"},{"STUDYID":"CDISCPILOT01","USUBJID":"01-704-1010","AESEQ":5,"AETERM":"SKIN LACERATION","AEDECOD":"SKIN LACERATION","AESOC":"INJURY, POISONING AND PROCEDURAL COMPLICATIONS","AESOCCD":null,"ASEV":"MILD","ASEVN":1,"AESER":"N","AREL":"NONE","AEACN":"","AEOUT":"NOT RECOVERED/NOT RESOLVED","ASTDT":"2014-07-06","AENDT":null,"ASTDY":136,"AENDY":null,"TRTEMFL":"Y","AOCC01FL":"Y","AOCCFL":null,"TRTP":"Placebo","TRT01P":"Placebo","TRT01PN":null,"TRT01A":"Placebo","SITEGR1":900,"SAFFL":"Y"},{"STUDYID":"CDISCPILOT01","USUBJID":"01-704-1010","AESEQ":6,"AETERM":"ARTHRALGIA","AEDECOD":"ARTHRALGIA","AESOC":"MUSCULOSKELETAL AND CONNECTIVE TISSUE DISORDERS","AESOCCD":null,"ASEV":"MILD","ASEVN":1,"AESER":"N","AREL":"NONE","AEACN":"","AEOUT":"NOT RECOVERED/NOT RESOLVED","ASTDT":"2014-07-06","AENDT":null,"ASTDY":136,"AENDY":null,"TRTEMFL":"Y","AOCC01FL":"Y","AOCCFL":null,"TRTP":"Placebo","TRT01P":"Placebo","TRT01PN":null,"TRT01A":"Placebo","SITEGR1":900,"SAFFL":"Y"},{"STUDYID":"CDISCPILOT01","USUBJID":"01-704-1010","AESEQ":7,"AETERM":"CONTUSION","AEDECOD":"CONTUSION","AESOC":"INJURY, POISONING AND PROCEDURAL COMPLICATIONS","AESOCCD":null,"ASEV":"MILD","ASEVN":1,"AESER":"N","AREL":"NONE","AEACN":"","AEOUT":"NOT RECOVERED/NOT RESOLVED","ASTDT":"2014-07-06","AENDT":null,"ASTDY":136,"AENDY":null,"TRTEMFL":"Y","AOCC01FL":"Y","AOCCFL":null,"TRTP":"Placebo","TRT01P":"Placebo","TRT01PN":null,"TRT01A":"Placebo","SITEGR1":900,"SAFFL":"Y"},{"STUDYID":"CDISCPILOT01","USUBJID":"01-704-1017","AESEQ":1,"AETERM":"MYOCARDIAL INFARCTION","AEDECOD":"MYOCARDIAL INFARCTION","AESOC":"CARDIAC DISORDERS","AESOCCD":null,"ASEV":"MILD","ASEVN":1,"AESER":"N","AREL":"NONE","AEACN":"","AEOUT":"NOT RECOVERED/NOT RESOLVED","ASTDT":"2013-10-19","AENDT":null,"ASTDY":14,"AENDY":null,"TRTEMFL":"Y","AOCC01FL":"Y","AOCCFL":"Y","TRTP":"Xanomeline High Dose","TRT01P":"Xanomeline High Dose","TRT01PN":null,"TRT01A":"Xanomeline High Dose","SITEGR1":900,"SAFFL":"Y"},{"STUDYID":"CDISCPILOT01","USUBJID":"01-704-1017","AESEQ":2,"AETERM":"VENTRICULAR SEPTAL DEFECT","AEDECOD":"VENTRICULAR SEPTAL DEFECT","AESOC":"CONGENITAL, FAMILIAL AND GENETIC DISORDERS","AESOCCD":null,"ASEV":"MILD","ASEVN":1,"AESER":"N","AREL":"NONE","AEACN":"","AEOUT":"NOT RECOVERED/NOT RESOLVED","ASTDT":"2013-10-19","AENDT":null,"ASTDY":14,"AENDY":null,"TRTEMFL":"Y","AOCC01FL":"Y","AOCCFL":null,"TRTP":"Xanomeline High Dose","TRT01P":"Xanomeline High Dose","TRT01PN":null,"TRT01A":"Xanomeline High Dose","SITEGR1":900,"SAFFL":"Y"},{"STUDYID":"CDISCPILOT01","USUBJID":"01-704-1017","AESEQ":3,"AETERM":"INFLUENZA","AEDECOD":"INFLUENZA","AESOC":"INFECTIONS AND INFESTATIONS","AESOCCD":null,"ASEV":"MILD","ASEVN":1,"AESER":"N","AREL":"NONE","AEACN":"","AEOUT":"RECOVERED/RESOLVED","ASTDT":"2013-11-01","AENDT":"2013-11-08","ASTDY":27,"AENDY":34,"TRTEMFL":"Y","AOCC01FL":"Y","AOCCFL":null,"TRTP":"Xanomeline High Dose","TRT01P":"Xanomeline High Dose","TRT01PN":null,"TRT01A":"Xanomeline High Dose","SITEGR1":900,"SAFFL":"Y"},{"STUDYID":"CDISCPILOT01","USUBJID":"01-704-1017","AESEQ":4,"AETERM":"CARDIAC DISORDER","AEDECOD":"CARDIAC DISORDER","AESOC":"CARDIAC DISORDERS","AESOCCD":null,"ASEV":"MILD","ASEVN":1,"AESER":"N","AREL":"NONE","AEACN":"","AEOUT":"NOT RECOVERED/NOT RESOLVED","ASTDT":"2013-11-01","AENDT":null,"ASTDY":27,"AENDY":null,"TRTEMFL":"Y","AOCC01FL":"Y","AOCCFL":null,"TRTP":"Xanomeline High Dose","TRT01P":"Xanomeline High Dose","TRT01PN":null,"TRT01A":"Xanomeline High Dose","SITEGR1":900,"SAFFL":"Y"},{"STUDYID":"CDISCPILOT01","USUBJID":"01-704-1017","AESEQ":5,"AETERM":"RASH","AEDECOD":"RASH","AESOC":"SKIN AND SUBCUTANEOUS TISSUE DISORDERS","AESOCCD":null,"ASEV":"MILD","ASEVN":1,"AESER":"N","AREL":"PROBABLE","AEACN":"","AEOUT":"NOT RECOVERED/NOT RESOLVED","ASTDT":"2013-11-05","AENDT":"2013-11-22","ASTDY":31,"AENDY":48,"TRTEMFL":"Y","AOCC01FL":"Y","AOCCFL":null,"TRTP":"Xanomeline High Dose","TRT01P":"Xanomeline High Dose","TRT01PN":null,"TRT01A":"Xanomeline High Dose","SITEGR1":900,"SAFFL":"Y"},{"STUDYID":"CDISCPILOT01","USUBJID":"01-704-1017","AESEQ":6,"AETERM":"PRURITUS","AEDECOD":"PRURITUS","AESOC":"SKIN AND SUBCUTANEOUS TISSUE DISORDERS","AESOCCD":null,"ASEV":"MILD","ASEVN":1,"AESER":"N","AREL":"PROBABLE","AEACN":"","AEOUT":"NOT RECOVERED/NOT RESOLVED","ASTDT":"2013-11-05","AENDT":"2013-11-22","ASTDY":31,"AENDY":48,"TRTEMFL":"Y","AOCC01FL":"Y","AOCCFL":null,"TRTP":"Xanomeline High Dose","TRT01P":"Xanomeline High Dose","TRT01PN":null,"TRT01A":"Xanomeline High Dose","SITEGR1":900,"SAFFL":"Y"},{"STUDYID":"CDISCPILOT01","USUBJID":"01-704-1017","AESEQ":7,"AETERM":"RASH","AEDECOD":"RASH","AESOC":"SKIN AND SUBCUTANEOUS TISSUE DISORDERS","AESOCCD":null,"ASEV":"MILD","ASEVN":1,"AESER":"N","AREL":"PROBABLE","AEACN":"","AEOUT":"RECOVERED/RESOLVED","ASTDT":"2013-11-05","AENDT":"2013-11-22","ASTDY":31,"AENDY":48,"TRTEMFL":"Y","AOCC01FL":null,"AOCCFL":null,"TRTP":"Xanomeline High Dose","TRT01P":"Xanomeline High Dose","TRT01PN":null,"TRT01A":"Xanomeline High Dose","SITEGR1":900,"SAFFL":"Y"},{"STUDYID":"CDISCPILOT01","USUBJID":"01-704-1017","AESEQ":8,"AETERM":"PRURITUS","AEDECOD":"PRURITUS","AESOC":"SKIN AND SUBCUTANEOUS TISSUE DISORDERS","AESOCCD":null,"ASEV":"MILD","ASEVN":1,"AESER":"N","AREL":"PROBABLE","AEACN":"","AEOUT":"RECOVERED/RESOLVED","ASTDT":"2013-11-05","AENDT":"2013-11-22","ASTDY":31,"AENDY":48,"TRTEMFL":"Y","AOCC01FL":null,"AOCCFL":null,"TRTP":"Xanomeline High Dose","TRT01P":"Xanomeline High Dose","TRT01PN":null,"TRT01A":"Xanomeline High Dose","SITEGR1":900,"SAFFL":"Y"},{"STUDYID":"CDISCPILOT01","USUBJID":"01-704-1025","AESEQ":1,"AETERM":"VERTIGO","AEDECOD":"VERTIGO","AESOC":"EAR AND LABYRINTH DISORDERS","AESOCCD":null,"ASEV":"MODERATE","ASEVN":2,"AESER":"N","AREL":"POSSIBLE","AEACN":"","AEOUT":"RECOVERED/RESOLVED","ASTDT":"2013-09-28","AENDT":"2013-09-30","ASTDY":2,"AENDY":4,"TRTEMFL":"Y","AOCC01FL":"Y","AOCCFL":"Y","TRTP":"Xanomeline Low Dose","TRT01P":"Xanomeline Low Dose","TRT01PN":null,"TRT01A":"Xanomeline Low Dose","SITEGR1":900,"SAFFL":"Y"},{"STUDYID":"CDISCPILOT01","USUBJID":"01-704-1025","AESEQ":2,"AETERM":"PALPITATIONS","AEDECOD":"PALPITATIONS","AESOC":"CARDIAC DISORDERS","AESOCCD":null,"ASEV":"MODERATE","ASEVN":2,"AESER":"N","AREL":"REMOTE","AEACN":"","AEOUT":"RECOVERED/RESOLVED","ASTDT":"2013-09-28","AENDT":"2013-09-30","ASTDY":2,"AENDY":4,"TRTEMFL":"Y","AOCC01FL":"Y","AOCCFL":null,"TRTP":"Xanomeline Low Dose","TRT01P":"Xanomeline Low Dose","TRT01PN":null,"TRT01A":"Xanomeline Low Dose","SITEGR1":900,"SAFFL":"Y"},{"STUDYID":"CDISCPILOT01","USUBJID":"01-704-1025","AESEQ":3,"AETERM":"ELECTROCARDIOGRAM ST SEGMENT DEPRESSION","AEDECOD":"ELECTROCARDIOGRAM ST SEGMENT DEPRESSION","AESOC":"INVESTIGATIONS","AESOCCD":null,"ASEV":"MILD","ASEVN":1,"AESER":"N","AREL":"POSSIBLE","AEACN":"","AEOUT":"NOT RECOVERED/NOT RESOLVED","ASTDT":"2013-10-11","AENDT":"2013-10-25","ASTDY":15,"AENDY":29,"TRTEMFL":"Y","AOCC01FL":"Y","AOCCFL":null,"TRTP":"Xanomeline Low Dose","TRT01P":"Xanomeline Low Dose","TRT01PN":null,"TRT01A":"Xanomeline Low Dose","SITEGR1":900,"SAFFL":"Y"},{"STUDYID":"CDISCPILOT01","USUBJID":"01-704-1025","AESEQ":5,"AETERM":"ELECTROCARDIOGRAM ST SEGMENT DEPRESSION","AEDECOD":"ELECTROCARDIOGRAM ST SEGMENT DEPRESSION","AESOC":"INVESTIGATIONS","AESOCCD":null,"ASEV":"MILD","ASEVN":1,"AESER":"N","AREL":"POSSIBLE","AEACN":"","AEOUT":"RECOVERED/RESOLVED","ASTDT":"2013-10-11","AENDT":"2013-10-25","ASTDY":15,"AENDY":29,"TRTEMFL":"Y","AOCC01FL":null,"AOCCFL":null,"TRTP":"Xanomeline Low Dose","TRT01P":"Xanomeline Low Dose","TRT01PN":null,"TRT01A":"Xanomeline Low Dose","SITEGR1":900,"SAFFL":"Y"},{"STUDYID":"CDISCPILOT01","USUBJID":"01-704-1025","AESEQ":4,"AETERM":"WOLFF-PARKINSON-WHITE SYNDROME","AEDECOD":"WOLFF-PARKINSON-WHITE SYNDROME","AESOC":"CARDIAC DISORDERS","AESOCCD":null,"ASEV":"MILD","ASEVN":1,"AESER":"N","AREL":"POSSIBLE","AEACN":"","AEOUT":"NOT RECOVERED/NOT RESOLVED","ASTDT":"2013-10-25","AENDT":"2013-11-29","ASTDY":29,"AENDY":64,"TRTEMFL":"Y","AOCC01FL":"Y","AOCCFL":null,"TRTP":"Xanomeline Low Dose","TRT01P":"Xanomeline Low Dose","TRT01PN":null,"TRT01A":"Xanomeline Low Dose","SITEGR1":900,"SAFFL":"Y"},{"STUDYID":"CDISCPILOT01","USUBJID":"01-704-1025","AESEQ":6,"AETERM":"WOLFF-PARKINSON-WHITE SYNDROME","AEDECOD":"WOLFF-PARKINSON-WHITE SYNDROME","AESOC":"CARDIAC DISORDERS","AESOCCD":null,"ASEV":"MILD","ASEVN":1,"AESER":"N","AREL":"POSSIBLE","AEACN":"","AEOUT":"RECOVERED/RESOLVED","ASTDT":"2013-10-25","AENDT":"2013-11-29","ASTDY":29,"AENDY":64,"TRTEMFL":"Y","AOCC01FL":null,"AOCCFL":null,"TRTP":"Xanomeline Low Dose","TRT01P":"Xanomeline Low Dose","TRT01PN":null,"TRT01A":"Xanomeline Low Dose","SITEGR1":900,"SAFFL":"Y"},{"STUDYID":"CDISCPILOT01","USUBJID":"01-704-1065","AESEQ":1,"AETERM":"ABDOMINAL DISCOMFORT","AEDECOD":"ABDOMINAL DISCOMFORT","AESOC":"GASTROINTESTINAL DISORDERS","AESOCCD":null,"ASEV":"MILD","ASEVN":1,"AESER":"N","AREL":"REMOTE","AEACN":"","AEOUT":"NOT RECOVERED/NOT RESOLVED","ASTDT":"2013-10-26","AENDT":null,"ASTDY":3,"AENDY":null,"TRTEMFL":"Y","AOCC01FL":"Y","AOCCFL":"Y","TRTP":"Xanomeline High Dose","TRT01P":"Xanomeline High Dose","TRT01PN":null,"TRT01A":"Xanomeline High Dose","SITEGR1":900,"SAFFL":"Y"},{"STUDYID":"CDISCPILOT01","USUBJID":"01-704-1065","AESEQ":2,"AETERM":"RASH","AEDECOD":"RASH","AESOC":"SKIN AND SUBCUTANEOUS TISSUE DISORDERS","AESOCCD":null,"ASEV":"MILD","ASEVN":1,"AESER":"N","AREL":"PROBABLE","AEACN":"","AEOUT":"NOT RECOVERED/NOT RESOLVED","ASTDT":"2013-10-27","AENDT":null,"ASTDY":4,"AENDY":null,"TRTEMFL":"Y","AOCC01FL":"Y","AOCCFL":null,"TRTP":"Xanomeline High Dose","TRT01P":"Xanomeline High Dose","TRT01PN":null,"TRT01A":"Xanomeline High Dose","SITEGR1":900,"SAFFL":"Y"},{"STUDYID":"CDISCPILOT01","USUBJID":"01-704-1065","AESEQ":3,"AETERM":"APPLICATION SITE PRURITUS","AEDECOD":"APPLICATION SITE PRURITUS","AESOC":"GENERAL DISORDERS AND ADMINISTRATION SITE CONDITIONS","AESOCCD":null,"ASEV":"MODERATE","ASEVN":2,"AESER":"N","AREL":"PROBABLE","AEACN":"","AEOUT":"NOT RECOVERED/NOT RESOLVED","ASTDT":"2013-10-27","AENDT":null,"ASTDY":4,"AENDY":null,"TRTEMFL":"Y","AOCC01FL":"Y","AOCCFL":null,"TRTP":"Xanomeline High Dose","TRT01P":"Xanomeline High Dose","TRT01PN":null,"TRT01A":"Xanomeline High Dose","SITEGR1":900,"SAFFL":"Y"},{"STUDYID":"CDISCPILOT01","USUBJID":"01-704-1065","AESEQ":4,"AETERM":"APPLICATION SITE IRRITATION","AEDECOD":"APPLICATION SITE IRRITATION","AESOC":"GENERAL DISORDERS AND ADMINISTRATION SITE CONDITIONS","AESOCCD":null,"ASEV":"MILD","ASEVN":1,"AESER":"N","AREL":"PROBABLE","AEACN":"","AEOUT":"NOT RECOVERED/NOT RESOLVED","ASTDT":"2013-11-09","AENDT":null,"ASTDY":17,"AENDY":null,"TRTEMFL":"Y","AOCC01FL":"Y","AOCCFL":null,"TRTP":"Xanomeline High Dose","TRT01P":"Xanomeline High Dose","TRT01PN":null,"TRT01A":"Xanomeline High Dose","SITEGR1":900,"SAFFL":"Y"},{"STUDYID":"CDISCPILOT01","USUBJID":"01-704-1065","AESEQ":5,"AETERM":"MALAISE","AEDECOD":"MALAISE","AESOC":"GENERAL DISORDERS AND ADMINISTRATION SITE CONDITIONS","AESOCCD":null,"ASEV":"MILD","ASEVN":1,"AESER":"N","AREL":"POSSIBLE","AEACN":"","AEOUT":"NOT RECOVERED/NOT RESOLVED","ASTDT":"2013-11-09","AENDT":null,"ASTDY":17,"AENDY":null,"TRTEMFL":"Y","AOCC01FL":"Y","AOCCFL":null,"TRTP":"Xanomeline High Dose","TRT01P":"Xanomeline High Dose","TRT01PN":null,"TRT01A":"Xanomeline High Dose","SITEGR1":900,"SAFFL":"Y"},{"STUDYID":"CDISCPILOT01","USUBJID":"01-704-1065","AESEQ":6,"AETERM":"HYPERHIDROSIS","AEDECOD":"HYPERHIDROSIS","AESOC":"SKIN AND SUBCUTANEOUS TISSUE DISORDERS","AESOCCD":null,"ASEV":"MILD","ASEVN":1,"AESER":"N","AREL":"POSSIBLE","AEACN":"","AEOUT":"NOT RECOVERED/NOT RESOLVED","ASTDT":"2013-11-09","AENDT":null,"ASTDY":17,"AENDY":null,"TRTEMFL":"Y","AOCC01FL":"Y","AOCCFL":null,"TRTP":"Xanomeline High Dose","TRT01P":"Xanomeline High Dose","TRT01PN":null,"TRT01A":"Xanomeline High Dose","SITEGR1":900,"SAFFL":"Y"},{"STUDYID":"CDISCPILOT01","USUBJID":"01-704-1065","AESEQ":7,"AETERM":"CHILLS","AEDECOD":"CHILLS","AESOC":"GENERAL DISORDERS AND ADMINISTRATION SITE CONDITIONS","AESOCCD":null,"ASEV":"MILD","ASEVN":1,"AESER":"N","AREL":"REMOTE","AEACN":"","AEOUT":"RECOVERED/RESOLVED","ASTDT":"2013-11-17","AENDT":"2013-11-17","ASTDY":25,"AENDY":25,"TRTEMFL":"Y","AOCC01FL":"Y","AOCCFL":null,"TRTP":"Xanomeline High Dose","TRT01P":"Xanomeline High Dose","TRT01PN":null,"TRT01A":"Xanomeline High Dose","SITEGR1":900,"SAFFL":"Y"},{"STUDYID":"CDISCPILOT01","USUBJID":"01-704-1065","AESEQ":8,"AETERM":"DIZZINESS","AEDECOD":"DIZZINESS","AESOC":"NERVOUS SYSTEM DISORDERS","AESOCCD":null,"ASEV":"MILD","ASEVN":1,"AESER":"N","AREL":"REMOTE","AEACN":"","AEOUT":"RECOVERED/RESOLVED","ASTDT":"2013-11-17","AENDT":"2013-11-17","ASTDY":25,"AENDY":25,"TRTEMFL":"Y","AOCC01FL":"Y","AOCCFL":null,"TRTP":"Xanomeline High Dose","TRT01P":"Xanomeline High Dose","TRT01PN":null,"TRT01A":"Xanomeline High Dose","SITEGR1":900,"SAFFL":"Y"},{"STUDYID":"CDISCPILOT01","USUBJID":"01-704-1065","AESEQ":9,"AETERM":"DIARRHOEA","AEDECOD":"DIARRHOEA","AESOC":"GASTROINTESTINAL DISORDERS","AESOCCD":null,"ASEV":"MILD","ASEVN":1,"AESER":"N","AREL":"REMOTE","AEACN":"","AEOUT":"RECOVERED/RESOLVED","ASTDT":"2013-12-15","AENDT":"2013-12-15","ASTDY":53,"AENDY":53,"TRTEMFL":"Y","AOCC01FL":"Y","AOCCFL":null,"TRTP":"Xanomeline High Dose","TRT01P":"Xanomeline High Dose","TRT01PN":null,"TRT01A":"Xanomeline High Dose","SITEGR1":900,"SAFFL":"Y"},{"STUDYID":"CDISCPILOT01","USUBJID":"01-704-1065","AESEQ":10,"AETERM":"SINUS BRADYCARDIA","AEDECOD":"SINUS BRADYCARDIA","AESOC":"CARDIAC DISORDERS","AESOCCD":null,"ASEV":"MILD","ASEVN":1,"AESER":"N","AREL":"NONE","AEACN":"","AEOUT":"NOT RECOVERED/NOT RESOLVED","ASTDT":"2013-12-24","AENDT":null,"ASTDY":62,"AENDY":null,"TRTEMFL":"Y","AOCC01FL":"Y","AOCCFL":null,"TRTP":"Xanomeline High Dose","TRT01P":"Xanomeline High Dose","TRT01PN":null,"TRT01A":"Xanomeline High Dose","SITEGR1":900,"SAFFL":"Y"},{"STUDYID":"CDISCPILOT01","USUBJID":"01-704-1074","AESEQ":1,"AETERM":"PRURITUS","AEDECOD":"PRURITUS","AESOC":"SKIN AND SUBCUTANEOUS TISSUE DISORDERS","AESOCCD":null,"ASEV":"MILD","ASEVN":1,"AESER":"N","AREL":"PROBABLE","AEACN":"","AEOUT":"NOT RECOVERED/NOT RESOLVED","ASTDT":"2014-01-22","AENDT":null,"ASTDY":1,"AENDY":null,"TRTEMFL":"Y","AOCC01FL":"Y","AOCCFL":"Y","TRTP":"Xanomeline High Dose","TRT01P":"Xanomeline High Dose","TRT01PN":null,"TRT01A":"Xanomeline High Dose","SITEGR1":900,"SAFFL":"Y"},{"STUDYID":"CDISCPILOT01","USUBJID":"01-704-1074","AESEQ":2,"AETERM":"ERYTHEMA","AEDECOD":"ERYTHEMA","AESOC":"SKIN AND SUBCUTANEOUS TISSUE DISORDERS","AESOCCD":null,"ASEV":"MILD","ASEVN":1,"AESER":"N","AREL":"PROBABLE","AEACN":"","AEOUT":"NOT RECOVERED/NOT RESOLVED","ASTDT":"2014-02-09","AENDT":null,"ASTDY":19,"AENDY":null,"TRTEMFL":"Y","AOCC01FL":"Y","AOCCFL":null,"TRTP":"Xanomeline High Dose","TRT01P":"Xanomeline High Dose","TRT01PN":null,"TRT01A":"Xanomeline High Dose","SITEGR1":900,"SAFFL":"Y"},{"STUDYID":"CDISCPILOT01","USUBJID":"01-704-1093","AESEQ":1,"AETERM":"BLOOD GLUCOSE INCREASED","AEDECOD":"BLOOD GLUCOSE INCREASED","AESOC":"INVESTIGATIONS","AESOCCD":null,"ASEV":"MILD","ASEVN":1,"AESER":"N","AREL":"NONE","AEACN":"","AEOUT":"NOT RECOVERED/NOT RESOLVED","ASTDT":"2013-03-30","AENDT":"2013-04-13","ASTDY":16,"AENDY":30,"TRTEMFL":"Y","AOCC01FL":"Y","AOCCFL":"Y","TRTP":"Xanomeline High Dose","TRT01P":"Xanomeline High Dose","TRT01PN":null,"TRT01A":"Xanomeline High Dose","SITEGR1":900,"SAFFL":"Y"},{"STUDYID":"CDISCPILOT01","USUBJID":"01-704-1093","AESEQ":2,"AETERM":"BLOOD GLUCOSE INCREASED","AEDECOD":"BLOOD GLUCOSE INCREASED","AESOC":"INVESTIGATIONS","AESOCCD":null,"ASEV":"MILD","ASEVN":1,"AESER":"N","AREL":"NONE","AEACN":"","AEOUT":"RECOVERED/RESOLVED","ASTDT":"2013-03-30","AENDT":"2013-04-13","ASTDY":16,"AENDY":30,"TRTEMFL":"Y","AOCC01FL":null,"AOCCFL":null,"TRTP":"Xanomeline High Dose","TRT01P":"Xanomeline High Dose","TRT01PN":null,"TRT01A":"Xanomeline High Dose","SITEGR1":900,"SAFFL":"Y"},{"STUDYID":"CDISCPILOT01","USUBJID":"01-704-1093","AESEQ":3,"AETERM":"RASH","AEDECOD":"RASH","AESOC":"SKIN AND SUBCUTANEOUS TISSUE DISORDERS","AESOCCD":null,"ASEV":"MILD","ASEVN":1,"AESER":"N","AREL":"PROBABLE","AEACN":"","AEOUT":"NOT RECOVERED/NOT RESOLVED","ASTDT":"2013-05-04","AENDT":null,"ASTDY":51,"AENDY":null,"TRTEMFL":"Y","AOCC01FL":"Y","AOCCFL":null,"TRTP":"Xanomeline High Dose","TRT01P":"Xanomeline High Dose","TRT01PN":null,"TRT01A":"Xanomeline High Dose","SITEGR1":900,"SAFFL":"Y"},{"STUDYID":"CDISCPILOT01","USUBJID":"01-704-1093","AESEQ":4,"AETERM":"PRURITUS","AEDECOD":"PRURITUS","AESOC":"SKIN AND SUBCUTANEOUS TISSUE DISORDERS","AESOCCD":null,"ASEV":"MILD","ASEVN":1,"AESER":"N","AREL":"PROBABLE","AEACN":"","AEOUT":"NOT RECOVERED/NOT RESOLVED","ASTDT":"2013-05-04","AENDT":null,"ASTDY":51,"AENDY":null,"TRTEMFL":"Y","AOCC01FL":"Y","AOCCFL":null,"TRTP":"Xanomeline High Dose","TRT01P":"Xanomeline High Dose","TRT01PN":null,"TRT01A":"Xanomeline High Dose","SITEGR1":900,"SAFFL":"Y"},{"STUDYID":"CDISCPILOT01","USUBJID":"01-704-1114","AESEQ":1,"AETERM":"ERYTHEMA","AEDECOD":"ERYTHEMA","AESOC":"SKIN AND SUBCUTANEOUS TISSUE DISORDERS","AESOCCD":null,"ASEV":"MILD","ASEVN":1,"AESER":"N","AREL":"PROBABLE","AEACN":"","AEOUT":"RECOVERED/RESOLVED","ASTDT":"2013-02-21","AENDT":"2013-02-23","ASTDY":30,"AENDY":32,"TRTEMFL":"Y","AOCC01FL":"Y","AOCCFL":"Y","TRTP":"Xanomeline Low Dose","TRT01P":"Xanomeline Low Dose","TRT01PN":null,"TRT01A":"Xanomeline Low Dose","SITEGR1":900,"SAFFL":"Y"},{"STUDYID":"CDISCPILOT01","USUBJID":"01-704-1114","AESEQ":2,"AETERM":"OEDEMA","AEDECOD":"OEDEMA","AESOC":"GENERAL DISORDERS AND ADMINISTRATION SITE CONDITIONS","AESOCCD":null,"ASEV":"MILD","ASEVN":1,"AESER":"N","AREL":"PROBABLE","AEACN":"","AEOUT":"NOT RECOVERED/NOT RESOLVED","ASTDT":"2013-02-23","AENDT":null,"ASTDY":32,"AENDY":null,"TRTEMFL":"Y","AOCC01FL":"Y","AOCCFL":null,"TRTP":"Xanomeline Low Dose","TRT01P":"Xanomeline Low Dose","TRT01PN":null,"TRT01A":"Xanomeline Low Dose","SITEGR1":900,"SAFFL":"Y"},{"STUDYID":"CDISCPILOT01","USUBJID":"01-704-1114","AESEQ":3,"AETERM":"RASH","AEDECOD":"RASH","AESOC":"SKIN AND SUBCUTANEOUS TISSUE DISORDERS","AESOCCD":null,"ASEV":"MILD","ASEVN":1,"AESER":"N","AREL":"PROBABLE","AEACN":"","AEOUT":"NOT RECOVERED/NOT RESOLVED","ASTDT":"2013-03-23","AENDT":null,"ASTDY":60,"AENDY":null,"TRTEMFL":"Y","AOCC01FL":"Y","AOCCFL":null,"TRTP":"Xanomeline Low Dose","TRT01P":"Xanomeline Low Dose","TRT01PN":null,"TRT01A":"Xanomeline Low Dose","SITEGR1":900,"SAFFL":"Y"},{"STUDYID":"CDISCPILOT01","USUBJID":"01-704-1114","AESEQ":4,"AETERM":"PRURITUS","AEDECOD":"PRURITUS","AESOC":"SKIN AND SUBCUTANEOUS TISSUE DISORDERS","AESOCCD":null,"ASEV":"MILD","ASEVN":1,"AESER":"N","AREL":"PROBABLE","AEACN":"","AEOUT":"NOT RECOVERED/NOT RESOLVED","ASTDT":"2013-03-23","AENDT":null,"ASTDY":60,"AENDY":null,"TRTEMFL":"Y","AOCC01FL":"Y","AOCCFL":null,"TRTP":"Xanomeline Low Dose","TRT01P":"Xanomeline Low Dose","TRT01PN":null,"TRT01A":"Xanomeline Low Dose","SITEGR1":900,"SAFFL":"Y"},{"STUDYID":"CDISCPILOT01","USUBJID":"01-704-1114","AESEQ":5,"AETERM":"INFLUENZA","AEDECOD":"INFLUENZA","AESOC":"INFECTIONS AND INFESTATIONS","AESOCCD":null,"ASEV":"MILD","ASEVN":1,"AESER":"N","AREL":"NONE","AEACN":"","AEOUT":"RECOVERED/RESOLVED","ASTDT":"2013-06-07","AENDT":"2013-06-13","ASTDY":136,"AENDY":142,"TRTEMFL":"Y","AOCC01FL":"Y","AOCCFL":null,"TRTP":"Xanomeline Low Dose","TRT01P":"Xanomeline Low Dose","TRT01PN":null,"TRT01A":"Xanomeline Low Dose","SITEGR1":900,"SAFFL":"Y"},{"STUDYID":"CDISCPILOT01","USUBJID":"01-704-1120","AESEQ":1,"AETERM":"RASH","AEDECOD":"RASH","AESOC":"SKIN AND SUBCUTANEOUS TISSUE DISORDERS","AESOCCD":null,"ASEV":"MILD","ASEVN":1,"AESER":"N","AREL":"PROBABLE","AEACN":"","AEOUT":"NOT RECOVERED/NOT RESOLVED","ASTDT":"2013-12-23","AENDT":null,"ASTDY":22,"AENDY":null,"TRTEMFL":"Y","AOCC01FL":null,"AOCCFL":"Y","TRTP":"Xanomeline Low Dose","TRT01P":"Xanomeline Low Dose","TRT01PN":null,"TRT01A":"Xanomeline Low Dose","SITEGR1":900,"SAFFL":"Y"},{"STUDYID":"CDISCPILOT01","USUBJID":"01-704-1120","AESEQ":3,"AETERM":"RASH","AEDECOD":"RASH","AESOC":"SKIN AND SUBCUTANEOUS TISSUE DISORDERS","AESOCCD":null,"ASEV":"MODERATE","ASEVN":2,"AESER":"N","AREL":"PROBABLE","AEACN":"","AEOUT":"NOT RECOVERED/NOT RESOLVED","ASTDT":"2013-12-23","AENDT":null,"ASTDY":22,"AENDY":null,"TRTEMFL":"Y","AOCC01FL":"Y","AOCCFL":null,"TRTP":"Xanomeline Low Dose","TRT01P":"Xanomeline Low Dose","TRT01PN":null,"TRT01A":"Xanomeline Low Dose","SITEGR1":900,"SAFFL":"Y"},{"STUDYID":"CDISCPILOT01","USUBJID":"01-704-1120","AESEQ":2,"AETERM":"NASOPHARYNGITIS","AEDECOD":"NASOPHARYNGITIS","AESOC":"INFECTIONS AND INFESTATIONS","AESOCCD":null,"ASEV":"MILD","ASEVN":1,"AESER":"N","AREL":"NONE","AEACN":"","AEOUT":"NOT RECOVERED/NOT RESOLVED","ASTDT":"2013-12-28","AENDT":"2014-02-03","ASTDY":27,"AENDY":64,"TRTEMFL":"Y","AOCC01FL":"Y","AOCCFL":null,"TRTP":"Xanomeline Low Dose","TRT01P":"Xanomeline Low Dose","TRT01PN":null,"TRT01A":"Xanomeline Low Dose","SITEGR1":900,"SAFFL":"Y"},{"STUDYID":"CDISCPILOT01","USUBJID":"01-704-1120","AESEQ":6,"AETERM":"NASOPHARYNGITIS","AEDECOD":"NASOPHARYNGITIS","AESOC":"INFECTIONS AND INFESTATIONS","AESOCCD":null,"ASEV":"MILD","ASEVN":1,"AESER":"N","AREL":"NONE","AEACN":"","AEOUT":"RECOVERED/RESOLVED","ASTDT":"2013-12-28","AENDT":"2014-02-03","ASTDY":27,"AENDY":64,"TRTEMFL":"Y","AOCC01FL":null,"AOCCFL":null,"TRTP":"Xanomeline Low Dose","TRT01P":"Xanomeline Low Dose","TRT01PN":null,"TRT01A":"Xanomeline Low Dose","SITEGR1":900,"SAFFL":"Y"},{"STUDYID":"CDISCPILOT01","USUBJID":"01-704-1120","AESEQ":4,"AETERM":"PRURITUS","AEDECOD":"PRURITUS","AESOC":"SKIN AND SUBCUTANEOUS TISSUE DISORDERS","AESOCCD":null,"ASEV":"MILD","ASEVN":1,"AESER":"N","AREL":"PROBABLE","AEACN":"","AEOUT":"NOT RECOVERED/NOT RESOLVED","ASTDT":"2014-01-27","AENDT":null,"ASTDY":57,"AENDY":null,"TRTEMFL":"Y","AOCC01FL":null,"AOCCFL":null,"TRTP":"Xanomeline Low Dose","TRT01P":"Xanomeline Low Dose","TRT01PN":null,"TRT01A":"Xanomeline Low Dose","SITEGR1":900,"SAFFL":"Y"},{"STUDYID":"CDISCPILOT01","USUBJID":"01-704-1120","AESEQ":5,"AETERM":"PRURITUS","AEDECOD":"PRURITUS","AESOC":"SKIN AND SUBCUTANEOUS TISSUE DISORDERS","AESOCCD":null,"ASEV":"MODERATE","ASEVN":2,"AESER":"N","AREL":"PROBABLE","AEACN":"","AEOUT":"NOT RECOVERED/NOT RESOLVED","ASTDT":"2014-01-27","AENDT":null,"ASTDY":57,"AENDY":null,"TRTEMFL":"Y","AOCC01FL":"Y","AOCCFL":null,"TRTP":"Xanomeline Low Dose","TRT01P":"Xanomeline Low Dose","TRT01PN":null,"TRT01A":"Xanomeline Low Dose","SITEGR1":900,"SAFFL":"Y"},{"STUDYID":"CDISCPILOT01","USUBJID":"01-704-1135","AESEQ":1,"AETERM":"RASH","AEDECOD":"RASH","AESOC":"SKIN AND SUBCUTANEOUS TISSUE DISORDERS","AESOCCD":null,"ASEV":"MILD","ASEVN":1,"AESER":"N","AREL":"","AEACN":"","AEOUT":"NOT RECOVERED/NOT RESOLVED","ASTDT":"2013-12-08","AENDT":null,"ASTDY":39,"AENDY":null,"TRTEMFL":"Y","AOCC01FL":null,"AOCCFL":"Y","TRTP":"Xanomeline Low Dose","TRT01P":"Xanomeline Low Dose","TRT01PN":null,"TRT01A":"Xanomeline Low Dose","SITEGR1":900,"SAFFL":"Y"},{"STUDYID":"CDISCPILOT01","USUBJID":"01-704-1135","AESEQ":2,"AETERM":"RASH","AEDECOD":"RASH","AESOC":"SKIN AND SUBCUTANEOUS TISSUE DISORDERS","AESOCCD":null,"ASEV":"SEVERE","ASEVN":3,"AESER":"N","AREL":"","AEACN":"","AEOUT":"NOT RECOVERED/NOT RESOLVED","ASTDT":"2013-12-08","AENDT":null,"ASTDY":39,"AENDY":null,"TRTEMFL":"Y","AOCC01FL":"Y","AOCCFL":null,"TRTP":"Xanomeline Low Dose","TRT01P":"Xanomeline Low Dose","TRT01PN":null,"TRT01A":"Xanomeline Low Dose","SITEGR1":900,"SAFFL":"Y"},{"STUDYID":"CDISCPILOT01","USUBJID":"01-704-1164","AESEQ":1,"AETERM":"INFLUENZA","AEDECOD":"INFLUENZA","AESOC":"INFECTIONS AND INFESTATIONS","AESOCCD":null,"ASEV":"MILD","ASEVN":1,"AESER":"N","AREL":"NONE","AEACN":"","AEOUT":"NOT RECOVERED/NOT RESOLVED","ASTDT":"2012-09-27","AENDT":"2012-10-07","ASTDY":9,"AENDY":19,"TRTEMFL":"Y","AOCC01FL":"Y","AOCCFL":"Y","TRTP":"Placebo","TRT01P":"Placebo","TRT01PN":null,"TRT01A":"Placebo","SITEGR1":900,"SAFFL":"Y"},{"STUDYID":"CDISCPILOT01","USUBJID":"01-704-1164","AESEQ":2,"AETERM":"INFLUENZA","AEDECOD":"INFLUENZA","AESOC":"INFECTIONS AND INFESTATIONS","AESOCCD":null,"ASEV":"MILD","ASEVN":1,"AESER":"N","AREL":"NONE","AEACN":"","AEOUT":"RECOVERED/RESOLVED","ASTDT":"2012-09-27","AENDT":"2012-10-07","ASTDY":9,"AENDY":19,"TRTEMFL":"Y","AOCC01FL":null,"AOCCFL":null,"TRTP":"Placebo","TRT01P":"Placebo","TRT01PN":null,"TRT01A":"Placebo","SITEGR1":900,"SAFFL":"Y"},{"STUDYID":"CDISCPILOT01","USUBJID":"01-704-1164","AESEQ":3,"AETERM":"OEDEMA PERIPHERAL","AEDECOD":"OEDEMA PERIPHERAL","AESOC":"GENERAL DISORDERS AND ADMINISTRATION SITE CONDITIONS","AESOCCD":null,"ASEV":"MILD","ASEVN":1,"AESER":"N","AREL":"NONE","AEACN":"","AEOUT":"RECOVERED/RESOLVED","ASTDT":"2013-02-04","AENDT":"2013-02-13","ASTDY":139,"AENDY":148,"TRTEMFL":"Y","AOCC01FL":"Y","AOCCFL":null,"TRTP":"Placebo","TRT01P":"Placebo","TRT01PN":null,"TRT01A":"Placebo","SITEGR1":900,"SAFFL":"Y"},{"STUDYID":"CDISCPILOT01","USUBJID":"01-704-1218","AESEQ":1,"AETERM":"BLOOD GLUCOSE INCREASED","AEDECOD":"BLOOD GLUCOSE INCREASED","AESOC":"INVESTIGATIONS","AESOCCD":null,"ASEV":"MILD","ASEVN":1,"AESER":"N","AREL":"NONE","AEACN":"","AEOUT":"NOT RECOVERED/NOT RESOLVED","ASTDT":"2012-12-30","AENDT":null,"ASTDY":42,"AENDY":null,"TRTEMFL":"Y","AOCC01FL":"Y","AOCCFL":"Y","TRTP":"Xanomeline Low Dose","TRT01P":"Xanomeline Low Dose","TRT01PN":null,"TRT01A":"Xanomeline Low Dose","SITEGR1":900,"SAFFL":"Y"},{"STUDYID":"CDISCPILOT01","USUBJID":"01-704-1241","AESEQ":1,"AETERM":"RASH","AEDECOD":"RASH","AESOC":"SKIN AND SUBCUTANEOUS TISSUE DISORDERS","AESOCCD":null,"ASEV":"MODERATE","ASEVN":2,"AESER":"N","AREL":"NONE","AEACN":"","AEOUT":"NOT RECOVERED/NOT RESOLVED","ASTDT":"2013-08-14","AENDT":null,"ASTDY":-11,"AENDY":null,"TRTEMFL":"N","AOCC01FL":null,"AOCCFL":null,"TRTP":"Xanomeline High Dose","TRT01P":"Xanomeline High Dose","TRT01PN":null,"TRT01A":"Xanomeline High Dose","SITEGR1":900,"SAFFL":"Y"},{"STUDYID":"CDISCPILOT01","USUBJID":"01-704-1241","AESEQ":2,"AETERM":"DYSPNOEA","AEDECOD":"DYSPNOEA","AESOC":"RESPIRATORY, THORACIC AND MEDIASTINAL DISORDERS","AESOCCD":null,"ASEV":"MILD","ASEVN":1,"AESER":"N","AREL":"NONE","AEACN":"","AEOUT":"NOT RECOVERED/NOT RESOLVED","ASTDT":"2013-09-28","AENDT":null,"ASTDY":35,"AENDY":null,"TRTEMFL":"Y","AOCC01FL":"Y","AOCCFL":null,"TRTP":"Xanomeline High Dose","TRT01P":"Xanomeline High Dose","TRT01PN":null,"TRT01A":"Xanomeline High Dose","SITEGR1":900,"SAFFL":"Y"},{"STUDYID":"CDISCPILOT01","USUBJID":"01-704-1266","AESEQ":1,"AETERM":"SEASONAL ALLERGY","AEDECOD":"SEASONAL ALLERGY","AESOC":"IMMUNE SYSTEM DISORDERS","AESOCCD":null,"ASEV":"MILD","ASEVN":1,"AESER":"N","AREL":"NONE","AEACN":"","AEOUT":"NOT RECOVERED/NOT RESOLVED","ASTDT":"2013-10-06","AENDT":null,"ASTDY":-7,"AENDY":null,"TRTEMFL":"N","AOCC01FL":null,"AOCCFL":null,"TRTP":"Xanomeline High Dose","TRT01P":"Xanomeline High Dose","TRT01PN":null,"TRT01A":"Xanomeline High Dose","SITEGR1":900,"SAFFL":"Y"},{"STUDYID":"CDISCPILOT01","USUBJID":"01-704-1266","AESEQ":2,"AETERM":"ERYTHEMA","AEDECOD":"ERYTHEMA","AESOC":"SKIN AND SUBCUTANEOUS TISSUE DISORDERS","AESOCCD":null,"ASEV":"MILD","ASEVN":1,"AESER":"N","AREL":"PROBABLE","AEACN":"","AEOUT":"NOT RECOVERED/NOT RESOLVED","ASTDT":"2013-10-17","AENDT":"2013-12-23","ASTDY":5,"AENDY":72,"TRTEMFL":"Y","AOCC01FL":null,"AOCCFL":null,"TRTP":"Xanomeline High Dose","TRT01P":"Xanomeline High Dose","TRT01PN":null,"TRT01A":"Xanomeline High Dose","SITEGR1":900,"SAFFL":"Y"},{"STUDYID":"CDISCPILOT01","USUBJID":"01-704-1266","AESEQ":9,"AETERM":"ERYTHEMA","AEDECOD":"ERYTHEMA","AESOC":"SKIN AND SUBCUTANEOUS TISSUE DISORDERS","AESOCCD":null,"ASEV":"MODERATE","ASEVN":2,"AESER":"N","AREL":"PROBABLE","AEACN":"","AEOUT":"NOT RECOVERED/NOT RESOLVED","ASTDT":"2013-10-17","AENDT":"2013-12-23","ASTDY":5,"AENDY":72,"TRTEMFL":"Y","AOCC01FL":"Y","AOCCFL":null,"TRTP":"Xanomeline High Dose","TRT01P":"Xanomeline High Dose","TRT01PN":null,"TRT01A":"Xanomeline High Dose","SITEGR1":900,"SAFFL":"Y"},{"STUDYID":"CDISCPILOT01","USUBJID":"01-704-1266","AESEQ":12,"AETERM":"ERYTHEMA","AEDECOD":"ERYTHEMA","AESOC":"SKIN AND SUBCUTANEOUS TISSUE DISORDERS","AESOCCD":null,"ASEV":"MODERATE","ASEVN":2,"AESER":"N","AREL":"PROBABLE","AEACN":"","AEOUT":"RECOVERED/RESOLVED","ASTDT":"2013-10-17","AENDT":"2013-12-23","ASTDY":5,"AENDY":72,"TRTEMFL":"Y","AOCC01FL":null,"AOCCFL":null,"TRTP":"Xanomeline High Dose","TRT01P":"Xanomeline High Dose","TRT01PN":null,"TRT01A":"Xanomeline High Dose","SITEGR1":900,"SAFFL":"Y"},{"STUDYID":"CDISCPILOT01","USUBJID":"01-704-1266","AESEQ":3,"AETERM":"ATRIAL FLUTTER","AEDECOD":"ATRIAL FLUTTER","AESOC":"CARDIAC DISORDERS","AESOCCD":null,"ASEV":"MILD","ASEVN":1,"AESER":"N","AREL":"NONE","AEACN":"","AEOUT":"NOT RECOVERED/NOT RESOLVED","ASTDT":"2013-10-27","AENDT":"2013-11-08","ASTDY":15,"AENDY":27,"TRTEMFL":"Y","AOCC01FL":"Y","AOCCFL":null,"TRTP":"Xanomeline High Dose","TRT01P":"Xanomeline High Dose","TRT01PN":null,"TRT01A":"Xanomeline High Dose","SITEGR1":900,"SAFFL":"Y"},{"STUDYID":"CDISCPILOT01","USUBJID":"01-704-1266","AESEQ":5,"AETERM":"ATRIAL FLUTTER","AEDECOD":"ATRIAL FLUTTER","AESOC":"CARDIAC DISORDERS","AESOCCD":null,"ASEV":"MILD","ASEVN":1,"AESER":"N","AREL":"NONE","AEACN":"","AEOUT":"RECOVERED/RESOLVED","ASTDT":"2013-10-27","AENDT":"2013-11-08","ASTDY":15,"AENDY":27,"TRTEMFL":"Y","AOCC01FL":null,"AOCCFL":null,"TRTP":"Xanomeline High Dose","TRT01P":"Xanomeline High Dose","TRT01PN":null,"TRT01A":"Xanomeline High Dose","SITEGR1":900,"SAFFL":"Y"},{"STUDYID":"CDISCPILOT01","USUBJID":"01-704-1266","AESEQ":4,"AETERM":"ATRIAL FIBRILLATION","AEDECOD":"ATRIAL FIBRILLATION","AESOC":"CARDIAC DISORDERS","AESOCCD":null,"ASEV":"MILD","ASEVN":1,"AESER":"N","AREL":"NONE","AEACN":"","AEOUT":"NOT RECOVERED/NOT RESOLVED","ASTDT":"2013-11-08","AENDT":"2013-12-06","ASTDY":27,"AENDY":55,"TRTEMFL":"Y","AOCC01FL":"Y","AOCCFL":null,"TRTP":"Xanomeline High Dose","TRT01P":"Xanomeline High Dose","TRT01PN":null,"TRT01A":"Xanomeline High Dose","SITEGR1":900,"SAFFL":"Y"},{"STUDYID":"CDISCPILOT01","USUBJID":"01-704-1266","AESEQ":13,"AETERM":"ATRIAL FIBRILLATION","AEDECOD":"ATRIAL FIBRILLATION","AESOC":"CARDIAC DISORDERS","AESOCCD":null,"ASEV":"MILD","ASEVN":1,"AESER":"N","AREL":"NONE","AEACN":"","AEOUT":"RECOVERED/RESOLVED","ASTDT":"2013-11-08","AENDT":"2013-12-06","ASTDY":27,"AENDY":55,"TRTEMFL":"Y","AOCC01FL":null,"AOCCFL":null,"TRTP":"Xanomeline High Dose","TRT01P":"Xanomeline High Dose","TRT01PN":null,"TRT01A":"Xanomeline High Dose","SITEGR1":900,"SAFFL":"Y"},{"STUDYID":"CDISCPILOT01","USUBJID":"01-704-1266","AESEQ":6,"AETERM":"HYPERHIDROSIS","AEDECOD":"HYPERHIDROSIS","AESOC":"SKIN AND SUBCUTANEOUS TISSUE DISORDERS","AESOCCD":null,"ASEV":"MILD","ASEVN":1,"AESER":"N","AREL":"POSSIBLE","AEACN":"","AEOUT":"NOT RECOVERED/NOT RESOLVED","ASTDT":"2013-11-09","AENDT":"2013-12-04","ASTDY":28,"AENDY":53,"TRTEMFL":"Y","AOCC01FL":"Y","AOCCFL":null,"TRTP":"Xanomeline High Dose","TRT01P":"Xanomeline High Dose","TRT01PN":null,"TRT01A":"Xanomeline High Dose","SITEGR1":900,"SAFFL":"Y"},{"STUDYID":"CDISCPILOT01","USUBJID":"01-704-1266","AESEQ":10,"AETERM":"HYPERHIDROSIS","AEDECOD":"HYPERHIDROSIS","AESOC":"SKIN AND SUBCUTANEOUS TISSUE DISORDERS","AESOCCD":null,"ASEV":"MILD","ASEVN":1,"AESER":"N","AREL":"POSSIBLE","AEACN":"","AEOUT":"RECOVERED/RESOLVED","ASTDT":"2013-11-09","AENDT":"2013-12-04","ASTDY":28,"AENDY":53,"TRTEMFL":"Y","AOCC01FL":null,"AOCCFL":null,"TRTP":"Xanomeline High Dose","TRT01P":"Xanomeline High Dose","TRT01PN":null,"TRT01A":"Xanomeline High Dose","SITEGR1":900,"SAFFL":"Y"},{"STUDYID":"CDISCPILOT01","USUBJID":"01-704-1266","AESEQ":7,"AETERM":"BLISTER","AEDECOD":"BLISTER","AESOC":"SKIN AND SUBCUTANEOUS TISSUE DISORDERS","AESOCCD":null,"ASEV":"MILD","ASEVN":1,"AESER":"N","AREL":"PROBABLE","AEACN":"","AEOUT":"NOT RECOVERED/NOT RESOLVED","ASTDT":"2013-11-15","AENDT":"2013-12-14","ASTDY":34,"AENDY":63,"TRTEMFL":"Y","AOCC01FL":"Y","AOCCFL":null,"TRTP":"Xanomeline High Dose","TRT01P":"Xanomeline High Dose","TRT01PN":null,"TRT01A":"Xanomeline High Dose","SITEGR1":900,"SAFFL":"Y"},{"STUDYID":"CDISCPILOT01","USUBJID":"01-704-1266","AESEQ":8,"AETERM":"PRURITUS","AEDECOD":"PRURITUS","AESOC":"SKIN AND SUBCUTANEOUS TISSUE DISORDERS","AESOCCD":null,"ASEV":"MILD","ASEVN":1,"AESER":"N","AREL":"PROBABLE","AEACN":"","AEOUT":"NOT RECOVERED/NOT RESOLVED","ASTDT":"2013-11-15","AENDT":"2013-12-23","ASTDY":34,"AENDY":72,"TRTEMFL":"Y","AOCC01FL":"Y","AOCCFL":null,"TRTP":"Xanomeline High Dose","TRT01P":"Xanomeline High Dose","TRT01PN":null,"TRT01A":"Xanomeline High Dose","SITEGR1":900,"SAFFL":"Y"},{"STUDYID":"CDISCPILOT01","USUBJID":"01-704-1266","AESEQ":14,"AETERM":"BLISTER","AEDECOD":"BLISTER","AESOC":"SKIN AND SUBCUTANEOUS TISSUE DISORDERS","AESOCCD":null,"ASEV":"MILD","ASEVN":1,"AESER":"N","AREL":"PROBABLE","AEACN":"","AEOUT":"RECOVERED/RESOLVED","ASTDT":"2013-11-15","AENDT":"2013-12-14","ASTDY":34,"AENDY":63,"TRTEMFL":"Y","AOCC01FL":null,"AOCCFL":null,"TRTP":"Xanomeline High Dose","TRT01P":"Xanomeline High Dose","TRT01PN":null,"TRT01A":"Xanomeline High Dose","SITEGR1":900,"SAFFL":"Y"},{"STUDYID":"CDISCPILOT01","USUBJID":"01-704-1266","AESEQ":15,"AETERM":"PRURITUS","AEDECOD":"PRURITUS","AESOC":"SKIN AND SUBCUTANEOUS TISSUE DISORDERS","AESOCCD":null,"ASEV":"MILD","ASEVN":1,"AESER":"N","AREL":"PROBABLE","AEACN":"","AEOUT":"RECOVERED/RESOLVED","ASTDT":"2013-11-15","AENDT":"2013-12-23","ASTDY":34,"AENDY":72,"TRTEMFL":"Y","AOCC01FL":null,"AOCCFL":null,"TRTP":"Xanomeline High Dose","TRT01P":"Xanomeline High Dose","TRT01PN":null,"TRT01A":"Xanomeline High Dose","SITEGR1":900,"SAFFL":"Y"},{"STUDYID":"CDISCPILOT01","USUBJID":"01-704-1266","AESEQ":11,"AETERM":"ERYTHEMA","AEDECOD":"ERYTHEMA","AESOC":"SKIN AND SUBCUTANEOUS TISSUE DISORDERS","AESOCCD":null,"ASEV":"MILD","ASEVN":1,"AESER":"N","AREL":"PROBABLE","AEACN":"","AEOUT":"NOT RECOVERED/NOT RESOLVED","ASTDT":"2013-12-06","AENDT":"2013-12-23","ASTDY":55,"AENDY":72,"TRTEMFL":"Y","AOCC01FL":null,"AOCCFL":null,"TRTP":"Xanomeline High Dose","TRT01P":"Xanomeline High Dose","TRT01PN":null,"TRT01A":"Xanomeline High Dose","SITEGR1":900,"SAFFL":"Y"},{"STUDYID":"CDISCPIL