[{"STUDYID":"CDISCPILOT01","USUBJID":"01-701-1015","CMSEQ":1,"CMTRT":"ASPIRIN","CMINDC":"","CMDOSE":1,"CMDOSU":"TABLET","CMROUTE":"ORAL","ASTDT":null,"AENDT":null,"ASTDY":null,"AOCCFL":"Y","TRTP":"Placebo","TRT01P":"Placebo","TRT01PN":null,"TRT01A":"Placebo","SITEGR1":900,"SITEID":701,"TRTSDT":"2014-01-02","TRTEDT":"2014-07-02","ITTFL":"Y","SAFFL":"Y","EFFFL":"N","COMPLFL":"Y","CMCLASX":"(uncoded - no WHO-DD therapeutic class in source)"},{"STUDYID":"CDISCPILOT01","USUBJID":"01-701-1015","CMSEQ":5,"CMTRT":"ASPIRIN","CMINDC":"","CMDOSE":1,"CMDOSU":"TABLET","CMROUTE":"ORAL","ASTDT":null,"AENDT":null,"ASTDY":null,"AOCCFL":null,"TRTP":"Placebo","TRT01P":"Placebo","TRT01PN":null,"TRT01A":"Placebo","SITEGR1":900,"SITEID":701,"TRTSDT":"2014-01-02","TRTEDT":"2014-07-02","ITTFL":"Y","SAFFL":"Y","EFFFL":"N","COMPLFL":"Y","CMCLASX":"(uncoded - no WHO-DD therapeutic class in source)"},{"STUDYID":"CDISCPILOT01","USUBJID":"01-701-1015","CMSEQ":9,"CMTRT":"ASPIRIN","CMINDC":"","CMDOSE":1,"CMDOSU":"TABLET","CMROUTE":"ORAL","ASTDT":null,"AENDT":null,"ASTDY":null,"AOCCFL":null,"TRTP":"Placebo","TRT01P":"Placebo","TRT01PN":null,"TRT01A":"Placebo","SITEGR1":900,"SITEID":701,"TRTSDT":"2014-01-02","TRTEDT":"2014-07-02","ITTFL":"Y","SAFFL":"Y","EFFFL":"N","COMPLFL":"Y","CMCLASX":"(uncoded - no WHO-DD therapeutic class in source)"},{"STUDYID":"CDISCPILOT01","USUBJID":"01-701-1015","CMSEQ":13,"CMTRT":"ASPIRIN","CMINDC":"","CMDOSE":1,"CMDOSU":"TABLET","CMROUTE":"ORAL","ASTDT":null,"AENDT":null,"ASTDY":null,"AOCCFL":null,"TRTP":"Placebo","TRT01P":"Placebo","TRT01PN":null,"TRT01A":"Placebo","SITEGR1":900,"SITEID":701,"TRTSDT":"2014-01-02","TRTEDT":"2014-07-02","ITTFL":"Y","SAFFL":"Y","EFFFL":"N","COMPLFL":"Y","CMCLASX":"(uncoded - no WHO-DD therapeutic class in source)"},{"STUDYID":"CDISCPILOT01","USUBJID":"01-701-1015","CMSEQ":18,"CMTRT":"ASPIRIN","CMINDC":"","CMDOSE":1,"CMDOSU":"TABLET","CMROUTE":"ORAL","ASTDT":null,"AENDT":null,"ASTDY":null,"AOCCFL":null,"TRTP":"Placebo","TRT01P":"Placebo","TRT01PN":null,"TRT01A":"Placebo","SITEGR1":900,"SITEID":701,"TRTSDT":"2014-01-02","TRTEDT":"2014-07-02","ITTFL":"Y","SAFFL":"Y","EFFFL":"N","COMPLFL":"Y","CMCLASX":"(uncoded - no WHO-DD therapeutic class in source)"},{"STUDYID":"CDISCPILOT01","USUBJID":"01-701-1015","CMSEQ":23,"CMTRT":"ASPIRIN","CMINDC":"","CMDOSE":1,"CMDOSU":"TABLET","CMROUTE":"ORAL","ASTDT":null,"AENDT":null,"ASTDY":null,"AOCCFL":null,"TRTP":"Placebo","TRT01P":"Placebo","TRT01PN":null,"TRT01A":"Placebo","SITEGR1":900,"SITEID":701,"TRTSDT":"2014-01-02","TRTEDT":"2014-07-02","ITTFL":"Y","SAFFL":"Y","EFFFL":"N","COMPLFL":"Y","CMCLASX":"(uncoded - no WHO-DD therapeutic class in source)"},{"STUDYID":"CDISCPILOT01","USUBJID":"01-701-1015","CMSEQ":28,"CMTRT":"ASPIRIN","CMINDC":"","CMDOSE":1,"CMDOSU":"TABLET","CMROUTE":"ORAL","ASTDT":null,"AENDT":null,"ASTDY":null,"AOCCFL":null,"TRTP":"Placebo","TRT01P":"Placebo","TRT01PN":null,"TRT01A":"Placebo","SITEGR1":900,"SITEID":701,"TRTSDT":"2014-01-02","TRTEDT":"2014-07-02","ITTFL":"Y","SAFFL":"Y","EFFFL":"N","COMPLFL":"Y","CMCLASX":"(uncoded - no WHO-DD therapeutic class in source)"},{"STUDYID":"CDISCPILOT01","USUBJID":"01-701-1015","CMSEQ":33,"CMTRT":"ASPIRIN","CMINDC":"","CMDOSE":1,"CMDOSU":"TABLET","CMROUTE":"ORAL","ASTDT":null,"AENDT":null,"ASTDY":null,"AOCCFL":null,"TRTP":"Placebo","TRT01P":"Placebo","TRT01PN":null,"TRT01A":"Placebo","SITEGR1":900,"SITEID":701,"TRTSDT":"2014-01-02","TRTEDT":"2014-07-02","ITTFL":"Y","SAFFL":"Y","EFFFL":"N","COMPLFL":"Y","CMCLASX":"(uncoded - no WHO-DD therapeutic class in source)"},{"STUDYID":"CDISCPILOT01","USUBJID":"01-701-1015","CMSEQ":38,"CMTRT":"ASPIRIN","CMINDC":"","CMDOSE":1,"CMDOSU":"TABLET","CMROUTE":"ORAL","ASTDT":null,"AENDT":null,"ASTDY":null,"AOCCFL":null,"TRTP":"Placebo","TRT01P":"Placebo","TRT01PN":null,"TRT01A":"Placebo","SITEGR1":900,"SITEID":701,"TRTSDT":"2014-01-02","TRTEDT":"2014-07-02","ITTFL":"Y","SAFFL":"Y","EFFFL":"N","COMPLFL":"Y","CMCLASX":"(uncoded - no WHO-DD therapeutic class in source)"},{"STUDYID":"CDISCPILOT01","USUBJID":"01-701-1015","CMSEQ":43,"CMTRT":"ASPIRIN","CMINDC":"","CMDOSE":1,"CMDOSU":"TABLET","CMROUTE":"ORAL","ASTDT":null,"AENDT":null,"ASTDY":null,"AOCCFL":null,"TRTP":"Placebo","TRT01P":"Placebo","TRT01PN":null,"TRT01A":"Placebo","SITEGR1":900,"SITEID":701,"TRTSDT":"2014-01-02","TRTEDT":"2014-07-02","ITTFL":"Y","SAFFL":"Y","EFFFL":"N","COMPLFL":"Y","CMCLASX":"(uncoded - no WHO-DD therapeutic class in source)"},{"STUDYID":"CDISCPILOT01","USUBJID":"01-701-1015","CMSEQ":49,"CMTRT":"ASPIRIN","CMINDC":"","CMDOSE":1,"CMDOSU":"TABLET","CMROUTE":"ORAL","ASTDT":null,"AENDT":null,"ASTDY":null,"AOCCFL":null,"TRTP":"Placebo","TRT01P":"Placebo","TRT01PN":null,"TRT01A":"Placebo","SITEGR1":900,"SITEID":701,"TRTSDT":"2014-01-02","TRTEDT":"2014-07-02","ITTFL":"Y","SAFFL":"Y","EFFFL":"N","COMPLFL":"Y","CMCLASX":"(uncoded - no WHO-DD therapeutic class in source)"},{"STUDYID":"CDISCPILOT01","USUBJID":"01-701-1015","CMSEQ":55,"CMTRT":"ASPIRIN","CMINDC":"","CMDOSE":1,"CMDOSU":"TABLET","CMROUTE":"ORAL","ASTDT":null,"AENDT":null,"ASTDY":null,"AOCCFL":null,"TRTP":"Placebo","TRT01P":"Placebo","TRT01PN":null,"TRT01A":"Placebo","SITEGR1":900,"SITEID":701,"TRTSDT":"2014-01-02","TRTEDT":"2014-07-02","ITTFL":"Y","SAFFL":"Y","EFFFL":"N","COMPLFL":"Y","CMCLASX":"(uncoded - no WHO-DD therapeutic class in source)"},{"STUDYID":"CDISCPILOT01","USUBJID":"01-701-1015","CMSEQ":61,"CMTRT":"ASPIRIN","CMINDC":"","CMDOSE":1,"CMDOSU":"TABLET","CMROUTE":"ORAL","ASTDT":null,"AENDT":null,"ASTDY":null,"AOCCFL":null,"TRTP":"Placebo","TRT01P":"Placebo","TRT01PN":null,"TRT01A":"Placebo","SITEGR1":900,"SITEID":701,"TRTSDT":"2014-01-02","TRTEDT":"2014-07-02","ITTFL":"Y","SAFFL":"Y","EFFFL":"N","COMPLFL":"Y","CMCLASX":"(uncoded - no WHO-DD therapeutic class in source)"},{"STUDYID":"CDISCPILOT01","USUBJID":"01-701-1015","CMSEQ":4,"CMTRT":"CALCIUM","CMINDC":"PROPHYLAXIS OR NON-THERAPEUTIC USE","CMDOSE":1,"CMDOSU":"TABLET","CMROUTE":"ORAL","ASTDT":null,"AENDT":null,"ASTDY":null,"AOCCFL":"Y","TRTP":"Placebo","TRT01P":"Placebo","TRT01PN":null,"TRT01A":"Placebo","SITEGR1":900,"SITEID":701,"TRTSDT":"2014-01-02","TRTEDT":"2014-07-02","ITTFL":"Y","SAFFL":"Y","EFFFL":"N","COMPLFL":"Y","CMCLASX":"(uncoded - no WHO-DD therapeutic class in source)"},{"STUDYID":"CDISCPILOT01","USUBJID":"01-701-1015","CMSEQ":8,"CMTRT":"CALCIUM","CMINDC":"PROPHYLAXIS OR NON-THERAPEUTIC USE","CMDOSE":1,"CMDOSU":"TABLET","CMROUTE":"ORAL","ASTDT":null,"AENDT":null,"ASTDY":null,"AOCCFL":null,"TRTP":"Placebo","TRT01P":"Placebo","TRT01PN":null,"TRT01A":"Placebo","SITEGR1":900,"SITEID":701,"TRTSDT":"2014-01-02","TRTEDT":"2014-07-02","ITTFL":"Y","SAFFL":"Y","EFFFL":"N","COMPLFL":"Y","CMCLASX":"(uncoded - no WHO-DD therapeutic class in source)"},{"STUDYID":"CDISCPILOT01","USUBJID":"01-701-1015","CMSEQ":12,"CMTRT":"CALCIUM","CMINDC":"PROPHYLAXIS OR NON-THERAPEUTIC USE","CMDOSE":1,"CMDOSU":"TABLET","CMROUTE":"ORAL","ASTDT":null,"AENDT":null,"ASTDY":null,"AOCCFL":null,"TRTP":"Placebo","TRT01P":"Placebo","TRT01PN":null,"TRT01A":"Placebo","SITEGR1":900,"SITEID":701,"TRTSDT":"2014-01-02","TRTEDT":"2014-07-02","ITTFL":"Y","SAFFL":"Y","EFFFL":"N","COMPLFL":"Y","CMCLASX":"(uncoded - no WHO-DD therapeutic class in source)"},{"STUDYID":"CDISCPILOT01","USUBJID":"01-701-1015","CMSEQ":16,"CMTRT":"CALCIUM","CMINDC":"PROPHYLAXIS OR NON-THERAPEUTIC USE","CMDOSE":1,"CMDOSU":"TABLET","CMROUTE":"ORAL","ASTDT":null,"AENDT":null,"ASTDY":null,"AOCCFL":null,"TRTP":"Placebo","TRT01P":"Placebo","TRT01PN":null,"TRT01A":"Placebo","SITEGR1":900,"SITEID":701,"TRTSDT":"2014-01-02","TRTEDT":"2014-07-02","ITTFL":"Y","SAFFL":"Y","EFFFL":"N","COMPLFL":"Y","CMCLASX":"(uncoded - no WHO-DD therapeutic class in source)"},{"STUDYID":"CDISCPILOT01","USUBJID":"01-701-1015","CMSEQ":21,"CMTRT":"CALCIUM","CMINDC":"PROPHYLAXIS OR NON-THERAPEUTIC USE","CMDOSE":1,"CMDOSU":"TABLET","CMROUTE":"ORAL","ASTDT":null,"AENDT":null,"ASTDY":null,"AOCCFL":null,"TRTP":"Placebo","TRT01P":"Placebo","TRT01PN":null,"TRT01A":"Placebo","SITEGR1":900,"SITEID":701,"TRTSDT":"2014-01-02","TRTEDT":"2014-07-02","ITTFL":"Y","SAFFL":"Y","EFFFL":"N","COMPLFL":"Y","CMCLASX":"(uncoded - no WHO-DD therapeutic class in source)"},{"STUDYID":"CDISCPILOT01","USUBJID":"01-701-1015","CMSEQ":26,"CMTRT":"CALCIUM","CMINDC":"PROPHYLAXIS OR NON-THERAPEUTIC USE","CMDOSE":1,"CMDOSU":"TABLET","CMROUTE":"ORAL","ASTDT":null,"AENDT":null,"ASTDY":null,"AOCCFL":null,"TRTP":"Placebo","TRT01P":"Placebo","TRT01PN":null,"TRT01A":"Placebo","SITEGR1":900,"SITEID":701,"TRTSDT":"2014-01-02","TRTEDT":"2014-07-02","ITTFL":"Y","SAFFL":"Y","EFFFL":"N","COMPLFL":"Y","CMCLASX":"(uncoded - no WHO-DD therapeutic class in source)"},{"STUDYID":"CDISCPILOT01","USUBJID":"01-701-1015","CMSEQ":31,"CMTRT":"CALCIUM","CMINDC":"PROPHYLAXIS OR NON-THERAPEUTIC USE","CMDOSE":1,"CMDOSU":"TABLET","CMROUTE":"ORAL","ASTDT":null,"AENDT":null,"ASTDY":null,"AOCCFL":null,"TRTP":"Placebo","TRT01P":"Placebo","TRT01PN":null,"TRT01A":"Placebo","SITEGR1":900,"SITEID":701,"TRTSDT":"2014-01-02","TRTEDT":"2014-07-02","ITTFL":"Y","SAFFL":"Y","EFFFL":"N","COMPLFL":"Y","CMCLASX":"(uncoded - no WHO-DD therapeutic class in source)"},{"STUDYID":"CDISCPILOT01","USUBJID":"01-701-1015","CMSEQ":36,"CMTRT":"CALCIUM","CMINDC":"PROPHYLAXIS OR NON-THERAPEUTIC USE","CMDOSE":1,"CMDOSU":"TABLET","CMROUTE":"ORAL","ASTDT":null,"AENDT":null,"ASTDY":null,"AOCCFL":null,"TRTP":"Placebo","TRT01P":"Placebo","TRT01PN":null,"TRT01A":"Placebo","SITEGR1":900,"SITEID":701,"TRTSDT":"2014-01-02","TRTEDT":"2014-07-02","ITTFL":"Y","SAFFL":"Y","EFFFL":"N","COMPLFL":"Y","CMCLASX":"(uncoded - no WHO-DD therapeutic class in source)"},{"STUDYID":"CDISCPILOT01","USUBJID":"01-701-1015","CMSEQ":41,"CMTRT":"CALCIUM","CMINDC":"PROPHYLAXIS OR NON-THERAPEUTIC USE","CMDOSE":1,"CMDOSU":"TABLET","CMROUTE":"ORAL","ASTDT":null,"AENDT":null,"ASTDY":null,"AOCCFL":null,"TRTP":"Placebo","TRT01P":"Placebo","TRT01PN":null,"TRT01A":"Placebo","SITEGR1":900,"SITEID":701,"TRTSDT":"2014-01-02","TRTEDT":"2014-07-02","ITTFL":"Y","SAFFL":"Y","EFFFL":"N","COMPLFL":"Y","CMCLASX":"(uncoded - no WHO-DD therapeutic class in source)"},{"STUDYID":"CDISCPILOT01","USUBJID":"01-701-1015","CMSEQ":46,"CMTRT":"CALCIUM","CMINDC":"PROPHYLAXIS OR NON-THERAPEUTIC USE","CMDOSE":1,"CMDOSU":"TABLET","CMROUTE":"ORAL","ASTDT":null,"AENDT":null,"ASTDY":null,"AOCCFL":null,"TRTP":"Placebo","TRT01P":"Placebo","TRT01PN":null,"TRT01A":"Placebo","SITEGR1":900,"SITEID":701,"TRTSDT":"2014-01-02","TRTEDT":"2014-07-02","ITTFL":"Y","SAFFL":"Y","EFFFL":"N","COMPLFL":"Y","CMCLASX":"(uncoded - no WHO-DD therapeutic class in source)"},{"STUDYID":"CDISCPILOT01","USUBJID":"01-701-1015","CMSEQ":52,"CMTRT":"CALCIUM","CMINDC":"PROPHYLAXIS OR NON-THERAPEUTIC USE","CMDOSE":1,"CMDOSU":"TABLET","CMROUTE":"ORAL","ASTDT":null,"AENDT":null,"ASTDY":null,"AOCCFL":null,"TRTP":"Placebo","TRT01P":"Placebo","TRT01PN":null,"TRT01A":"Placebo","SITEGR1":900,"SITEID":701,"TRTSDT":"2014-01-02","TRTEDT":"2014-07-02","ITTFL":"Y","SAFFL":"Y","EFFFL":"N","COMPLFL":"Y","CMCLASX":"(uncoded - no WHO-DD therapeutic class in source)"},{"STUDYID":"CDISCPILOT01","USUBJID":"01-701-1015","CMSEQ":58,"CMTRT":"CALCIUM","CMINDC":"PROPHYLAXIS OR NON-THERAPEUTIC USE","CMDOSE":1,"CMDOSU":"TABLET","CMROUTE":"ORAL","ASTDT":null,"AENDT":null,"ASTDY":null,"AOCCFL":null,"TRTP":"Placebo","TRT01P":"Placebo","TRT01PN":null,"TRT01A":"Placebo","SITEGR1":900,"SITEID":701,"TRTSDT":"2014-01-02","TRTEDT":"2014-07-02","ITTFL":"Y","SAFFL":"Y","EFFFL":"N","COMPLFL":"Y","CMCLASX":"(uncoded - no WHO-DD therapeutic class in source)"},{"STUDYID":"CDISCPILOT01","USUBJID":"01-701-1015","CMSEQ":64,"CMTRT":"CALCIUM","CMINDC":"PROPHYLAXIS OR NON-THERAPEUTIC USE","CMDOSE":1,"CMDOSU":"TABLET","CMROUTE":"ORAL","ASTDT":null,"AENDT":null,"ASTDY":null,"AOCCFL":null,"TRTP":"Placebo","TRT01P":"Placebo","TRT01PN":null,"TRT01A":"Placebo","SITEGR1":900,"SITEID":701,"TRTSDT":"2014-01-02","TRTEDT":"2014-07-02","ITTFL":"Y","SAFFL":"Y","EFFFL":"N","COMPLFL":"Y","CMCLASX":"(uncoded - no WHO-DD therapeutic class in source)"},{"STUDYID":"CDISCPILOT01","USUBJID":"01-701-1015","CMSEQ":48,"CMTRT":"HYDROCORTISONE","CMINDC":"","CMDOSE":1,"CMDOSU":"VIAL","CMROUTE":"TOPICAL","ASTDT":"2014-03-27","AENDT":null,"ASTDY":85,"AOCCFL":"Y","TRTP":"Placebo","TRT01P":"Placebo","TRT01PN":null,"TRT01A":"Placebo","SITEGR1":900,"SITEID":701,"TRTSDT":"2014-01-02","TRTEDT":"2014-07-02","ITTFL":"Y","SAFFL":"Y","EFFFL":"N","COMPLFL":"Y","CMCLASX":"(uncoded - no WHO-DD therapeutic class in source)"},{"STUDYID":"CDISCPILOT01","USUBJID":"01-701-1015","CMSEQ":54,"CMTRT":"HYDROCORTISONE","CMINDC":"","CMDOSE":1,"CMDOSU":"VIAL","CMROUTE":"TOPICAL","ASTDT":"2014-03-27","AENDT":null,"ASTDY":85,"AOCCFL":null,"TRTP":"Placebo","TRT01P":"Placebo","TRT01PN":null,"TRT01A":"Placebo","SITEGR1":900,"SITEID":701,"TRTSDT":"2014-01-02","TRTEDT":"2014-07-02","ITTFL":"Y","SAFFL":"Y","EFFFL":"N","COMPLFL":"Y","CMCLASX":"(uncoded - no WHO-DD therapeutic class in source)"},{"STUDYID":"CDISCPILOT01","USUBJID":"01-701-1015","CMSEQ":60,"CMTRT":"HYDROCORTISONE","CMINDC":"","CMDOSE":1,"CMDOSU":"VIAL","CMROUTE":"TOPICAL","ASTDT":"2014-03-27","AENDT":null,"ASTDY":85,"AOCCFL":null,"TRTP":"Placebo","TRT01P":"Placebo","TRT01PN":null,"TRT01A":"Placebo","SITEGR1":900,"SITEID":701,"TRTSDT":"2014-01-02","TRTEDT":"2014-07-02","ITTFL":"Y","SAFFL":"Y","EFFFL":"N","COMPLFL":"Y","CMCLASX":"(uncoded - no WHO-DD therapeutic class in source)"},{"STUDYID":"CDISCPILOT01","USUBJID":"01-701-1015","CMSEQ":66,"CMTRT":"HYDROCORTISONE","CMINDC":"","CMDOSE":1,"CMDOSU":"VIAL","CMROUTE":"TOPICAL","ASTDT":"2014-03-27","AENDT":null,"ASTDY":85,"AOCCFL":null,"TRTP":"Placebo","TRT01P":"Placebo","TRT01PN":null,"TRT01A":"Placebo","SITEGR1":900,"SITEID":701,"TRTSDT":"2014-01-02","TRTEDT":"2014-07-02","ITTFL":"Y","SAFFL":"Y","EFFFL":"N","COMPLFL":"Y","CMCLASX":"(uncoded - no WHO-DD therapeutic class in source)"},{"STUDYID":"CDISCPILOT01","USUBJID":"01-701-1015","CMSEQ":17,"CMTRT":"NEOSPORIN /USA/","CMINDC":"","CMDOSE":1,"CMDOSU":"VIAL","CMROUTE":"TOPICAL","ASTDT":"2014-01-03","AENDT":null,"ASTDY":2,"AOCCFL":"Y","TRTP":"Placebo","TRT01P":"Placebo","TRT01PN":null,"TRT01A":"Placebo","SITEGR1":900,"SITEID":701,"TRTSDT":"2014-01-02","TRTEDT":"2014-07-02","ITTFL":"Y","SAFFL":"Y","EFFFL":"N","COMPLFL":"Y","CMCLASX":"(uncoded - no WHO-DD therapeutic class in source)"},{"STUDYID":"CDISCPILOT01","USUBJID":"01-701-1015","CMSEQ":22,"CMTRT":"NEOSPORIN /USA/","CMINDC":"","CMDOSE":1,"CMDOSU":"VIAL","CMROUTE":"TOPICAL","ASTDT":"2014-01-03","AENDT":null,"ASTDY":2,"AOCCFL":null,"TRTP":"Placebo","TRT01P":"Placebo","TRT01PN":null,"TRT01A":"Placebo","SITEGR1":900,"SITEID":701,"TRTSDT":"2014-01-02","TRTEDT":"2014-07-02","ITTFL":"Y","SAFFL":"Y","EFFFL":"N","COMPLFL":"Y","CMCLASX":"(uncoded - no WHO-DD therapeutic class in source)"},{"STUDYID":"CDISCPILOT01","USUBJID":"01-701-1015","CMSEQ":27,"CMTRT":"NEOSPORIN /USA/","CMINDC":"","CMDOSE":1,"CMDOSU":"VIAL","CMROUTE":"TOPICAL","ASTDT":"2014-01-03","AENDT":null,"ASTDY":2,"AOCCFL":null,"TRTP":"Placebo","TRT01P":"Placebo","TRT01PN":null,"TRT01A":"Placebo","SITEGR1":900,"SITEID":701,"TRTSDT":"2014-01-02","TRTEDT":"2014-07-02","ITTFL":"Y","SAFFL":"Y","EFFFL":"N","COMPLFL":"Y","CMCLASX":"(uncoded - no WHO-DD therapeutic class in source)"},{"STUDYID":"CDISCPILOT01","USUBJID":"01-701-1015","CMSEQ":32,"CMTRT":"NEOSPORIN /USA/","CMINDC":"","CMDOSE":1,"CMDOSU":"VIAL","CMROUTE":"TOPICAL","ASTDT":"2014-01-03","AENDT":null,"ASTDY":2,"AOCCFL":null,"TRTP":"Placebo","TRT01P":"Placebo","TRT01PN":null,"TRT01A":"Placebo","SITEGR1":900,"SITEID":701,"TRTSDT":"2014-01-02","TRTEDT":"2014-07-02","ITTFL":"Y","SAFFL":"Y","EFFFL":"N","COMPLFL":"Y","CMCLASX":"(uncoded - no WHO-DD therapeutic class in source)"},{"STUDYID":"CDISCPILOT01","USUBJID":"01-701-1015","CMSEQ":37,"CMTRT":"NEOSPORIN /USA/","CMINDC":"","CMDOSE":1,"CMDOSU":"VIAL","CMROUTE":"TOPICAL","ASTDT":"2014-01-03","AENDT":null,"ASTDY":2,"AOCCFL":null,"TRTP":"Placebo","TRT01P":"Placebo","TRT01PN":null,"TRT01A":"Placebo","SITEGR1":900,"SITEID":701,"TRTSDT":"2014-01-02","TRTEDT":"2014-07-02","ITTFL":"Y","SAFFL":"Y","EFFFL":"N","COMPLFL":"Y","CMCLASX":"(uncoded - no WHO-DD therapeutic class in source)"},{"STUDYID":"CDISCPILOT01","USUBJID":"01-701-1015","CMSEQ":42,"CMTRT":"NEOSPORIN /USA/","CMINDC":"","CMDOSE":1,"CMDOSU":"VIAL","CMROUTE":"TOPICAL","ASTDT":"2014-01-03","AENDT":null,"ASTDY":2,"AOCCFL":null,"TRTP":"Placebo","TRT01P":"Placebo","TRT01PN":null,"TRT01A":"Placebo","SITEGR1":900,"SITEID":701,"TRTSDT":"2014-01-02","TRTEDT":"2014-07-02","ITTFL":"Y","SAFFL":"Y","EFFFL":"N","COMPLFL":"Y","CMCLASX":"(uncoded - no WHO-DD therapeutic class in source)"},{"STUDYID":"CDISCPILOT01","USUBJID":"01-701-1015","CMSEQ":47,"CMTRT":"NEOSPORIN /USA/","CMINDC":"","CMDOSE":1,"CMDOSU":"VIAL","CMROUTE":"TOPICAL","ASTDT":"2014-01-03","AENDT":null,"ASTDY":2,"AOCCFL":null,"TRTP":"Placebo","TRT01P":"Placebo","TRT01PN":null,"TRT01A":"Placebo","SITEGR1":900,"SITEID":701,"TRTSDT":"2014-01-02","TRTEDT":"2014-07-02","ITTFL":"Y","SAFFL":"Y","EFFFL":"N","COMPLFL":"Y","CMCLASX":"(uncoded - no WHO-DD therapeutic class in source)"},{"STUDYID":"CDISCPILOT01","USUBJID":"01-701-1015","CMSEQ":53,"CMTRT":"NEOSPORIN /USA/","CMINDC":"","CMDOSE":1,"CMDOSU":"VIAL","CMROUTE":"TOPICAL","ASTDT":"2014-01-03","AENDT":null,"ASTDY":2,"AOCCFL":null,"TRTP":"Placebo","TRT01P":"Placebo","TRT01PN":null,"TRT01A":"Placebo","SITEGR1":900,"SITEID":701,"TRTSDT":"2014-01-02","TRTEDT":"2014-07-02","ITTFL":"Y","SAFFL":"Y","EFFFL":"N","COMPLFL":"Y","CMCLASX":"(uncoded - no WHO-DD therapeutic class in source)"},{"STUDYID":"CDISCPILOT01","USUBJID":"01-701-1015","CMSEQ":59,"CMTRT":"NEOSPORIN /USA/","CMINDC":"","CMDOSE":1,"CMDOSU":"VIAL","CMROUTE":"TOPICAL","ASTDT":"2014-01-03","AENDT":null,"ASTDY":2,"AOCCFL":null,"TRTP":"Placebo","TRT01P":"Placebo","TRT01PN":null,"TRT01A":"Placebo","SITEGR1":900,"SITEID":701,"TRTSDT":"2014-01-02","TRTEDT":"2014-07-02","ITTFL":"Y","SAFFL":"Y","EFFFL":"N","COMPLFL":"Y","CMCLASX":"(uncoded - no WHO-DD therapeutic class in source)"},{"STUDYID":"CDISCPILOT01","USUBJID":"01-701-1015","CMSEQ":65,"CMTRT":"NEOSPORIN /USA/","CMINDC":"","CMDOSE":1,"CMDOSU":"VIAL","CMROUTE":"TOPICAL","ASTDT":"2014-01-03","AENDT":null,"ASTDY":2,"AOCCFL":null,"TRTP":"Placebo","TRT01P":"Placebo","TRT01PN":null,"TRT01A":"Placebo","SITEGR1":900,"SITEID":701,"TRTSDT":"2014-01-02","TRTEDT":"2014-07-02","ITTFL":"Y","SAFFL":"Y","EFFFL":"N","COMPLFL":"Y","CMCLASX":"(uncoded - no WHO-DD therapeutic class in source)"},{"STUDYID":"CDISCPILOT01","USUBJID":"01-701-1015","CMSEQ":3,"CMTRT":"PREMARIN","CMINDC":"PROPHYLAXIS OR NON-THERAPEUTIC USE","CMDOSE":0.625,"CMDOSU":"mg","CMROUTE":"ORAL","ASTDT":null,"AENDT":null,"ASTDY":null,"AOCCFL":"Y","TRTP":"Placebo","TRT01P":"Placebo","TRT01PN":null,"TRT01A":"Placebo","SITEGR1":900,"SITEID":701,"TRTSDT":"2014-01-02","TRTEDT":"2014-07-02","ITTFL":"Y","SAFFL":"Y","EFFFL":"N","COMPLFL":"Y","CMCLASX":"(uncoded - no WHO-DD therapeutic class in source)"},{"STUDYID":"CDISCPILOT01","USUBJID":"01-701-1015","CMSEQ":7,"CMTRT":"PREMARIN","CMINDC":"PROPHYLAXIS OR NON-THERAPEUTIC USE","CMDOSE":0.625,"CMDOSU":"mg","CMROUTE":"ORAL","ASTDT":null,"AENDT":null,"ASTDY":null,"AOCCFL":null,"TRTP":"Placebo","TRT01P":"Placebo","TRT01PN":null,"TRT01A":"Placebo","SITEGR1":900,"SITEID":701,"TRTSDT":"2014-01-02","TRTEDT":"2014-07-02","ITTFL":"Y","SAFFL":"Y","EFFFL":"N","COMPLFL":"Y","CMCLASX":"(uncoded - no WHO-DD therapeutic class in source)"},{"STUDYID":"CDISCPILOT01","USUBJID":"01-701-1015","CMSEQ":11,"CMTRT":"PREMARIN","CMINDC":"PROPHYLAXIS OR NON-THERAPEUTIC USE","CMDOSE":0.625,"CMDOSU":"mg","CMROUTE":"ORAL","ASTDT":null,"AENDT":null,"ASTDY":null,"AOCCFL":null,"TRTP":"Placebo","TRT01P":"Placebo","TRT01PN":null,"TRT01A":"Placebo","SITEGR1":900,"SITEID":701,"TRTSDT":"2014-01-02","TRTEDT":"2014-07-02","ITTFL":"Y","SAFFL":"Y","EFFFL":"N","COMPLFL":"Y","CMCLASX":"(uncoded - no WHO-DD therapeutic class in source)"},{"STUDYID":"CDISCPILOT01","USUBJID":"01-701-1015","CMSEQ":15,"CMTRT":"PREMARIN","CMINDC":"PROPHYLAXIS OR NON-THERAPEUTIC USE","CMDOSE":0.625,"CMDOSU":"mg","CMROUTE":"ORAL","ASTDT":null,"AENDT":null,"ASTDY":null,"AOCCFL":null,"TRTP":"Placebo","TRT01P":"Placebo","TRT01PN":null,"TRT01A":"Placebo","SITEGR1":900,"SITEID":701,"TRTSDT":"2014-01-02","TRTEDT":"2014-07-02","ITTFL":"Y","SAFFL":"Y","EFFFL":"N","COMPLFL":"Y","CMCLASX":"(uncoded - no WHO-DD therapeutic class in source)"},{"STUDYID":"CDISCPILOT01","USUBJID":"01-701-1015","CMSEQ":20,"CMTRT":"PREMARIN","CMINDC":"PROPHYLAXIS OR NON-THERAPEUTIC USE","CMDOSE":0.625,"CMDOSU":"mg","CMROUTE":"ORAL","ASTDT":null,"AENDT":null,"ASTDY":null,"AOCCFL":null,"TRTP":"Placebo","TRT01P":"Placebo","TRT01PN":null,"TRT01A":"Placebo","SITEGR1":900,"SITEID":701,"TRTSDT":"2014-01-02","TRTEDT":"2014-07-02","ITTFL":"Y","SAFFL":"Y","EFFFL":"N","COMPLFL":"Y","CMCLASX":"(uncoded - no WHO-DD therapeutic class in source)"},{"STUDYID":"CDISCPILOT01","USUBJID":"01-701-1015","CMSEQ":25,"CMTRT":"PREMARIN","CMINDC":"PROPHYLAXIS OR NON-THERAPEUTIC USE","CMDOSE":0.625,"CMDOSU":"mg","CMROUTE":"ORAL","ASTDT":null,"AENDT":null,"ASTDY":null,"AOCCFL":null,"TRTP":"Placebo","TRT01P":"Placebo","TRT01PN":null,"TRT01A":"Placebo","SITEGR1":900,"SITEID":701,"TRTSDT":"2014-01-02","TRTEDT":"2014-07-02","ITTFL":"Y","SAFFL":"Y","EFFFL":"N","COMPLFL":"Y","CMCLASX":"(uncoded - no WHO-DD therapeutic class in source)"},{"STUDYID":"CDISCPILOT01","USUBJID":"01-701-1015","CMSEQ":30,"CMTRT":"PREMARIN","CMINDC":"PROPHYLAXIS OR NON-THERAPEUTIC USE","CMDOSE":0.625,"CMDOSU":"mg","CMROUTE":"ORAL","ASTDT":null,"AENDT":null,"ASTDY":null,"AOCCFL":null,"TRTP":"Placebo","TRT01P":"Placebo","TRT01PN":null,"TRT01A":"Placebo","SITEGR1":900,"SITEID":701,"TRTSDT":"2014-01-02","TRTEDT":"2014-07-02","ITTFL":"Y","SAFFL":"Y","EFFFL":"N","COMPLFL":"Y","CMCLASX":"(uncoded - no WHO-DD therapeutic class in source)"},{"STUDYID":"CDISCPILOT01","USUBJID":"01-701-1015","CMSEQ":35,"CMTRT":"PREMARIN","CMINDC":"PROPHYLAXIS OR NON-THERAPEUTIC USE","CMDOSE":0.625,"CMDOSU":"mg","CMROUTE":"ORAL","ASTDT":null,"AENDT":null,"ASTDY":null,"AOCCFL":null,"TRTP":"Placebo","TRT01P":"Placebo","TRT01PN":null,"TRT01A":"Placebo","SITEGR1":900,"SITEID":701,"TRTSDT":"2014-01-02","TRTEDT":"2014-07-02","ITTFL":"Y","SAFFL":"Y","EFFFL":"N","COMPLFL":"Y","CMCLASX":"(uncoded - no WHO-DD therapeutic class in source)"},{"STUDYID":"CDISCPILOT01","USUBJID":"01-701-1015","CMSEQ":40,"CMTRT":"PREMARIN","CMINDC":"PROPHYLAXIS OR NON-THERAPEUTIC USE","CMDOSE":0.625,"CMDOSU":"mg","CMROUTE":"ORAL","ASTDT":null,"AENDT":null,"ASTDY":null,"AOCCFL":null,"TRTP":"Placebo","TRT01P":"Placebo","TRT01PN":null,"TRT01A":"Placebo","SITEGR1":900,"SITEID":701,"TRTSDT":"2014-01-02","TRTEDT":"2014-07-02","ITTFL":"Y","SAFFL":"Y","EFFFL":"N","COMPLFL":"Y","CMCLASX":"(uncoded - no WHO-DD therapeutic class in source)"},{"STUDYID":"CDISCPILOT01","USUBJID":"01-701-1015","CMSEQ":45,"CMTRT":"PREMARIN","CMINDC":"PROPHYLAXIS OR NON-THERAPEUTIC USE","CMDOSE":0.625,"CMDOSU":"mg","CMROUTE":"ORAL","ASTDT":null,"AENDT":null,"ASTDY":null,"AOCCFL":null,"TRTP":"Placebo","TRT01P":"Placebo","TRT01PN":null,"TRT01A":"Placebo","SITEGR1":900,"SITEID":701,"TRTSDT":"2014-01-02","TRTEDT":"2014-07-02","ITTFL":"Y","SAFFL":"Y","EFFFL":"N","COMPLFL":"Y","CMCLASX":"(uncoded - no WHO-DD therapeutic class in source)"},{"STUDYID":"CDISCPILOT01","USUBJID":"01-701-1015","CMSEQ":51,"CMTRT":"PREMARIN","CMINDC":"PROPHYLAXIS OR NON-THERAPEUTIC USE","CMDOSE":0.625,"CMDOSU":"mg","CMROUTE":"ORAL","ASTDT":null,"AENDT":null,"ASTDY":null,"AOCCFL":null,"TRTP":"Placebo","TRT01P":"Placebo","TRT01PN":null,"TRT01A":"Placebo","SITEGR1":900,"SITEID":701,"TRTSDT":"2014-01-02","TRTEDT":"2014-07-02","ITTFL":"Y","SAFFL":"Y","EFFFL":"N","COMPLFL":"Y","CMCLASX":"(uncoded - no WHO-DD therapeutic class in source)"},{"STUDYID":"CDISCPILOT01","USUBJID":"01-701-1015","CMSEQ":57,"CMTRT":"PREMARIN","CMINDC":"PROPHYLAXIS OR NON-THERAPEUTIC USE","CMDOSE":0.625,"CMDOSU":"mg","CMROUTE":"ORAL","ASTDT":null,"AENDT":null,"ASTDY":null,"AOCCFL":null,"TRTP":"Placebo","TRT01P":"Placebo","TRT01PN":null,"TRT01A":"Placebo","SITEGR1":900,"SITEID":701,"TRTSDT":"2014-01-02","TRTEDT":"2014-07-02","ITTFL":"Y","SAFFL":"Y","EFFFL":"N","COMPLFL":"Y","CMCLASX":"(uncoded - no WHO-DD therapeutic class in source)"},{"STUDYID":"CDISCPILOT01","USUBJID":"01-701-1015","CMSEQ":63,"CMTRT":"PREMARIN","CMINDC":"PROPHYLAXIS OR NON-THERAPEUTIC USE","CMDOSE":0.625,"CMDOSU":"mg","CMROUTE":"ORAL","ASTDT":null,"AENDT":null,"ASTDY":null,"AOCCFL":null,"TRTP":"Placebo","TRT01P":"Placebo","TRT01PN":null,"TRT01A":"Placebo","SITEGR1":900,"SITEID":701,"TRTSDT":"2014-01-02","TRTEDT":"2014-07-02","ITTFL":"Y","SAFFL":"Y","EFFFL":"N","COMPLFL":"Y","CMCLASX":"(uncoded - no WHO-DD therapeutic class in source)"},{"STUDYID":"CDISCPILOT01","USUBJID":"01-701-1015","CMSEQ":2,"CMTRT":"TYLENOL","CMINDC":"","CMDOSE":1,"CMDOSU":"TABLET","CMROUTE":"ORAL","ASTDT":null,"AENDT":null,"ASTDY":null,"AOCCFL":"Y","TRTP":"Placebo","TRT01P":"Placebo","TRT01PN":null,"TRT01A":"Placebo","SITEGR1":900,"SITEID":701,"TRTSDT":"2014-01-02","TRTEDT":"2014-07-02","ITTFL":"Y","SAFFL":"Y","EFFFL":"N","COMPLFL":"Y","CMCLASX":"(uncoded - no WHO-DD therapeutic class in source)"},{"STUDYID":"CDISCPILOT01","USUBJID":"01-701-1015","CMSEQ":6,"CMTRT":"TYLENOL","CMINDC":"","CMDOSE":1,"CMDOSU":"TABLET","CMROUTE":"ORAL","ASTDT":null,"AENDT":null,"ASTDY":null,"AOCCFL":null,"TRTP":"Placebo","TRT01P":"Placebo","TRT01PN":null,"TRT01A":"Placebo","SITEGR1":900,"SITEID":701,"TRTSDT":"2014-01-02","TRTEDT":"2014-07-02","ITTFL":"Y","SAFFL":"Y","EFFFL":"N","COMPLFL":"Y","CMCLASX":"(uncoded - no WHO-DD therapeutic class in source)"},{"STUDYID":"CDISCPILOT01","USUBJID":"01-701-1015","CMSEQ":10,"CMTRT":"TYLENOL","CMINDC":"","CMDOSE":1,"CMDOSU":"TABLET","CMROUTE":"ORAL","ASTDT":null,"AENDT":null,"ASTDY":null,"AOCCFL":null,"TRTP":"Placebo","TRT01P":"Placebo","TRT01PN":null,"TRT01A":"Placebo","SITEGR1":900,"SITEID":701,"TRTSDT":"2014-01-02","TRTEDT":"2014-07-02","ITTFL":"Y","SAFFL":"Y","EFFFL":"N","COMPLFL":"Y","CMCLASX":"(uncoded - no WHO-DD therapeutic class in source)"},{"STUDYID":"CDISCPILOT01","USUBJID":"01-701-1015","CMSEQ":14,"CMTRT":"TYLENOL","CMINDC":"","CMDOSE":1,"CMDOSU":"TABLET","CMROUTE":"ORAL","ASTDT":null,"AENDT":null,"ASTDY":null,"AOCCFL":null,"TRTP":"Placebo","TRT01P":"Placebo","TRT01PN":null,"TRT01A":"Placebo","SITEGR1":900,"SITEID":701,"TRTSDT":"2014-01-02","TRTEDT":"2014-07-02","ITTFL":"Y","SAFFL":"Y","EFFFL":"N","COMPLFL":"Y","CMCLASX":"(uncoded - no WHO-DD therapeutic class in source)"},{"STUDYID":"CDISCPILOT01","USUBJID":"01-701-1015","CMSEQ":19,"CMTRT":"TYLENOL","CMINDC":"","CMDOSE":1,"CMDOSU":"TABLET","CMROUTE":"ORAL","ASTDT":null,"AENDT":null,"ASTDY":null,"AOCCFL":null,"TRTP":"Placebo","TRT01P":"Placebo","TRT01PN":null,"TRT01A":"Placebo","SITEGR1":900,"SITEID":701,"TRTSDT":"2014-01-02","TRTEDT":"2014-07-02","ITTFL":"Y","SAFFL":"Y","EFFFL":"N","COMPLFL":"Y","CMCLASX":"(uncoded - no WHO-DD therapeutic class in source)"},{"STUDYID":"CDISCPILOT01","USUBJID":"01-701-1015","CMSEQ":24,"CMTRT":"TYLENOL","CMINDC":"","CMDOSE":1,"CMDOSU":"TABLET","CMROUTE":"ORAL","ASTDT":null,"AENDT":null,"ASTDY":null,"AOCCFL":null,"TRTP":"Placebo","TRT01P":"Placebo","TRT01PN":null,"TRT01A":"Placebo","SITEGR1":900,"SITEID":701,"TRTSDT":"2014-01-02","TRTEDT":"2014-07-02","ITTFL":"Y","SAFFL":"Y","EFFFL":"N","COMPLFL":"Y","CMCLASX":"(uncoded - no WHO-DD therapeutic class in source)"},{"STUDYID":"CDISCPILOT01","USUBJID":"01-701-1015","CMSEQ":29,"CMTRT":"TYLENOL","CMINDC":"","CMDOSE":1,"CMDOSU":"TABLET","CMROUTE":"ORAL","ASTDT":null,"AENDT":null,"ASTDY":null,"AOCCFL":null,"TRTP":"Placebo","TRT01P":"Placebo","TRT01PN":null,"TRT01A":"Placebo","SITEGR1":900,"SITEID":701,"TRTSDT":"2014-01-02","TRTEDT":"2014-07-02","ITTFL":"Y","SAFFL":"Y","EFFFL":"N","COMPLFL":"Y","CMCLASX":"(uncoded - no WHO-DD therapeutic class in source)"},{"STUDYID":"CDISCPILOT01","USUBJID":"01-701-1015","CMSEQ":34,"CMTRT":"TYLENOL","CMINDC":"","CMDOSE":1,"CMDOSU":"TABLET","CMROUTE":"ORAL","ASTDT":null,"AENDT":null,"ASTDY":null,"AOCCFL":null,"TRTP":"Placebo","TRT01P":"Placebo","TRT01PN":null,"TRT01A":"Placebo","SITEGR1":900,"SITEID":701,"TRTSDT":"2014-01-02","TRTEDT":"2014-07-02","ITTFL":"Y","SAFFL":"Y","EFFFL":"N","COMPLFL":"Y","CMCLASX":"(uncoded - no WHO-DD therapeutic class in source)"},{"STUDYID":"CDISCPILOT01","USUBJID":"01-701-1015","CMSEQ":39,"CMTRT":"TYLENOL","CMINDC":"","CMDOSE":1,"CMDOSU":"TABLET","CMROUTE":"ORAL","ASTDT":null,"AENDT":null,"ASTDY":null,"AOCCFL":null,"TRTP":"Placebo","TRT01P":"Placebo","TRT01PN":null,"TRT01A":"Placebo","SITEGR1":900,"SITEID":701,"TRTSDT":"2014-01-02","TRTEDT":"2014-07-02","ITTFL":"Y","SAFFL":"Y","EFFFL":"N","COMPLFL":"Y","CMCLASX":"(uncoded - no WHO-DD therapeutic class in source)"},{"STUDYID":"CDISCPILOT01","USUBJID":"01-701-1015","CMSEQ":44,"CMTRT":"TYLENOL","CMINDC":"","CMDOSE":1,"CMDOSU":"TABLET","CMROUTE":"ORAL","ASTDT":null,"AENDT":null,"ASTDY":null,"AOCCFL":null,"TRTP":"Placebo","TRT01P":"Placebo","TRT01PN":null,"TRT01A":"Placebo","SITEGR1":900,"SITEID":701,"TRTSDT":"2014-01-02","TRTEDT":"2014-07-02","ITTFL":"Y","SAFFL":"Y","EFFFL":"N","COMPLFL":"Y","CMCLASX":"(uncoded - no WHO-DD therapeutic class in source)"},{"STUDYID":"CDISCPILOT01","USUBJID":"01-701-1015","CMSEQ":50,"CMTRT":"TYLENOL","CMINDC":"","CMDOSE":1,"CMDOSU":"TABLET","CMROUTE":"ORAL","ASTDT":null,"AENDT":null,"ASTDY":null,"AOCCFL":null,"TRTP":"Placebo","TRT01P":"Placebo","TRT01PN":null,"TRT01A":"Placebo","SITEGR1":900,"SITEID":701,"TRTSDT":"2014-01-02","TRTEDT":"2014-07-02","ITTFL":"Y","SAFFL":"Y","EFFFL":"N","COMPLFL":"Y","CMCLASX":"(uncoded - no WHO-DD therapeutic class in source)"},{"STUDYID":"CDISCPILOT01","USUBJID":"01-701-1015","CMSEQ":56,"CMTRT":"TYLENOL","CMINDC":"","CMDOSE":1,"CMDOSU":"TABLET","CMROUTE":"ORAL","ASTDT":null,"AENDT":null,"ASTDY":null,"AOCCFL":null,"TRTP":"Placebo","TRT01P":"Placebo","TRT01PN":null,"TRT01A":"Placebo","SITEGR1":900,"SITEID":701,"TRTSDT":"2014-01-02","TRTEDT":"2014-07-02","ITTFL":"Y","SAFFL":"Y","EFFFL":"N","COMPLFL":"Y","CMCLASX":"(uncoded - no WHO-DD therapeutic class in source)"},{"STUDYID":"CDISCPILOT01","USUBJID":"01-701-1015","CMSEQ":62,"CMTRT":"TYLENOL","CMINDC":"","CMDOSE":1,"CMDOSU":"TABLET","CMROUTE":"ORAL","ASTDT":null,"AENDT":null,"ASTDY":null,"AOCCFL":null,"TRTP":"Placebo","TRT01P":"Placebo","TRT01PN":null,"TRT01A":"Placebo","SITEGR1":900,"SITEID":701,"TRTSDT":"2014-01-02","TRTEDT":"2014-07-02","ITTFL":"Y","SAFFL":"Y","EFFFL":"N","COMPLFL":"Y","CMCLASX":"(uncoded - no WHO-DD therapeutic class in source)"},{"STUDYID":"CDISCPILOT01","USUBJID":"01-701-1023","CMSEQ":3,"CMTRT":"ASPIRIN","CMINDC":"","CMDOSE":325,"CMDOSU":"mg","CMROUTE":"ORAL","ASTDT":null,"AENDT":null,"ASTDY":null,"AOCCFL":"Y","TRTP":"Placebo","TRT01P":"Placebo","TRT01PN":null,"TRT01A":"Placebo","SITEGR1":900,"SITEID":701,"TRTSDT":"2012-08-05","TRTEDT":"2012-09-01","ITTFL":"Y","SAFFL":"Y","EFFFL":"N","COMPLFL":"N","CMCLASX":"(uncoded - no WHO-DD therapeutic class in source)"},{"STUDYID":"CDISCPILOT01","USUBJID":"01-701-1023","CMSEQ":6,"CMTRT":"ASPIRIN","CMINDC":"","CMDOSE":325,"CMDOSU":"mg","CMROUTE":"ORAL","ASTDT":null,"AENDT":null,"ASTDY":null,"AOCCFL":null,"TRTP":"Placebo","TRT01P":"Placebo","TRT01PN":null,"TRT01A":"Placebo","SITEGR1":900,"SITEID":701,"TRTSDT":"2012-08-05","TRTEDT":"2012-09-01","ITTFL":"Y","SAFFL":"Y","EFFFL":"N","COMPLFL":"N","CMCLASX":"(uncoded - no WHO-DD therapeutic class in source)"},{"STUDYID":"CDISCPILOT01","USUBJID":"01-701-1023","CMSEQ":9,"CMTRT":"ASPIRIN","CMINDC":"","CMDOSE":325,"CMDOSU":"mg","CMROUTE":"ORAL","ASTDT":null,"AENDT":null,"ASTDY":null,"AOCCFL":null,"TRTP":"Placebo","TRT01P":"Placebo","TRT01PN":null,"TRT01A":"Placebo","SITEGR1":900,"SITEID":701,"TRTSDT":"2012-08-05","TRTEDT":"2012-09-01","ITTFL":"Y","SAFFL":"Y","EFFFL":"N","COMPLFL":"N","CMCLASX":"(uncoded - no WHO-DD therapeutic class in source)"},{"STUDYID":"CDISCPILOT01","USUBJID":"01-701-1023","CMSEQ":12,"CMTRT":"ASPIRIN","CMINDC":"","CMDOSE":325,"CMDOSU":"mg","CMROUTE":"ORAL","ASTDT":null,"AENDT":null,"ASTDY":null,"AOCCFL":null,"TRTP":"Placebo","TRT01P":"Placebo","TRT01PN":null,"TRT01A":"Placebo","SITEGR1":900,"SITEID":701,"TRTSDT":"2012-08-05","TRTEDT":"2012-09-01","ITTFL":"Y","SAFFL":"Y","EFFFL":"N","COMPLFL":"N","CMCLASX":"(uncoded - no WHO-DD therapeutic class in source)"},{"STUDYID":"CDISCPILOT01","USUBJID":"01-701-1023","CMSEQ":15,"CMTRT":"ASPIRIN","CMINDC":"","CMDOSE":325,"CMDOSU":"mg","CMROUTE":"ORAL","ASTDT":null,"AENDT":null,"ASTDY":null,"AOCCFL":null,"TRTP":"Placebo","TRT01P":"Placebo","TRT01PN":null,"TRT01A":"Placebo","SITEGR1":900,"SITEID":701,"TRTSDT":"2012-08-05","TRTEDT":"2012-09-01","ITTFL":"Y","SAFFL":"Y","EFFFL":"N","COMPLFL":"N","CMCLASX":"(uncoded - no WHO-DD therapeutic class in source)"},{"STUDYID":"CDISCPILOT01","USUBJID":"01-701-1023","CMSEQ":18,"CMTRT":"ASPIRIN","CMINDC":"","CMDOSE":325,"CMDOSU":"mg","CMROUTE":"ORAL","ASTDT":null,"AENDT":null,"ASTDY":null,"AOCCFL":null,"TRTP":"Placebo","TRT01P":"Placebo","TRT01PN":null,"TRT01A":"Placebo","SITEGR1":900,"SITEID":701,"TRTSDT":"2012-08-05","TRTEDT":"2012-09-01","ITTFL":"Y","SAFFL":"Y","EFFFL":"N","COMPLFL":"N","CMCLASX":"(uncoded - no WHO-DD therapeutic class in source)"},{"STUDYID":"CDISCPILOT01","USUBJID":"01-701-1023","CMSEQ":21,"CMTRT":"ASPIRIN","CMINDC":"","CMDOSE":325,"CMDOSU":"mg","CMROUTE":"ORAL","ASTDT":null,"AENDT":null,"ASTDY":null,"AOCCFL":null,"TRTP":"Placebo","TRT01P":"Placebo","TRT01PN":null,"TRT01A":"Placebo","SITEGR1":900,"SITEID":701,"TRTSDT":"2012-08-05","TRTEDT":"2012-09-01","ITTFL":"Y","SAFFL":"Y","EFFFL":"N","COMPLFL":"N","CMCLASX":"(uncoded - no WHO-DD therapeutic class in source)"},{"STUDYID":"CDISCPILOT01","USUBJID":"01-701-1023","CMSEQ":1,"CMTRT":"MYLANTA","CMINDC":"","CMDOSE":1,"CMDOSU":"Tbsp","CMROUTE":"ORAL","ASTDT":null,"AENDT":null,"ASTDY":null,"AOCCFL":"Y","TRTP":"Placebo","TRT01P":"Placebo","TRT01PN":null,"TRT01A":"Placebo","SITEGR1":900,"SITEID":701,"TRTSDT":"2012-08-05","TRTEDT":"2012-09-01","ITTFL":"Y","SAFFL":"Y","EFFFL":"N","COMPLFL":"N","CMCLASX":"(uncoded - no WHO-DD therapeutic class in source)"},{"STUDYID":"CDISCPILOT01","USUBJID":"01-701-1023","CMSEQ":4,"CMTRT":"MYLANTA","CMINDC":"","CMDOSE":1,"CMDOSU":"Tbsp","CMROUTE":"ORAL","ASTDT":null,"AENDT":null,"ASTDY":null,"AOCCFL":null,"TRTP":"Placebo","TRT01P":"Placebo","TRT01PN":null,"TRT01A":"Placebo","SITEGR1":900,"SITEID":701,"TRTSDT":"2012-08-05","TRTEDT":"2012-09-01","ITTFL":"Y","SAFFL":"Y","EFFFL":"N","COMPLFL":"N","CMCLASX":"(uncoded - no WHO-DD therapeutic class in source)"},{"STUDYID":"CDISCPILOT01","USUBJID":"01-701-1023","CMSEQ":7,"CMTRT":"MYLANTA","CMINDC":"","CMDOSE":1,"CMDOSU":"Tbsp","CMROUTE":"ORAL","ASTDT":null,"AENDT":null,"ASTDY":null,"AOCCFL":null,"TRTP":"Placebo","TRT01P":"Placebo","TRT01PN":null,"TRT01A":"Placebo","SITEGR1":900,"SITEID":701,"TRTSDT":"2012-08-05","TRTEDT":"2012-09-01","ITTFL":"Y","SAFFL":"Y","EFFFL":"N","COMPLFL":"N","CMCLASX":"(uncoded - no WHO-DD therapeutic class in source)"},{"STUDYID":"CDISCPILOT01","USUBJID":"01-701-1023","CMSEQ":10,"CMTRT":"MYLANTA","CMINDC":"","CMDOSE":1,"CMDOSU":"Tbsp","CMROUTE":"ORAL","ASTDT":null,"AENDT":null,"ASTDY":null,"AOCCFL":null,"TRTP":"Placebo","TRT01P":"Placebo","TRT01PN":null,"TRT01A":"Placebo","SITEGR1":900,"SITEID":701,"TRTSDT":"2012-08-05","TRTEDT":"2012-09-01","ITTFL":"Y","SAFFL":"Y","EFFFL":"N","COMPLFL":"N","CMCLASX":"(uncoded - no WHO-DD therapeutic class in source)"},{"STUDYID":"CDISCPILOT01","USUBJID":"01-701-1023","CMSEQ":13,"CMTRT":"MYLANTA","CMINDC":"","CMDOSE":1,"CMDOSU":"Tbsp","CMROUTE":"ORAL","ASTDT":null,"AENDT":null,"ASTDY":null,"AOCCFL":null,"TRTP":"Placebo","TRT01P":"Placebo","TRT01PN":null,"TRT01A":"Placebo","SITEGR1":900,"SITEID":701,"TRTSDT":"2012-08-05","TRTEDT":"2012-09-01","ITTFL":"Y","SAFFL":"Y","EFFFL":"N","COMPLFL":"N","CMCLASX":"(uncoded - no WHO-DD therapeutic class in source)"},{"STUDYID":"CDISCPILOT01","USUBJID":"01-701-1023","CMSEQ":16,"CMTRT":"MYLANTA","CMINDC":"","CMDOSE":1,"CMDOSU":"Tbsp","CMROUTE":"ORAL","ASTDT":null,"AENDT":null,"ASTDY":null,"AOCCFL":null,"TRTP":"Placebo","TRT01P":"Placebo","TRT01PN":null,"TRT01A":"Placebo","SITEGR1":900,"SITEID":701,"TRTSDT":"2012-08-05","TRTEDT":"2012-09-01","ITTFL":"Y","SAFFL":"Y","EFFFL":"N","COMPLFL":"N","CMCLASX":"(uncoded - no WHO-DD therapeutic class in source)"},{"STUDYID":"CDISCPILOT01","USUBJID":"01-701-1023","CMSEQ":19,"CMTRT":"MYLANTA","CMINDC":"","CMDOSE":1,"CMDOSU":"Tbsp","CMROUTE":"ORAL","ASTDT":null,"AENDT":null,"ASTDY":null,"AOCCFL":null,"TRTP":"Placebo","TRT01P":"Placebo","TRT01PN":null,"TRT01A":"Placebo","SITEGR1":900,"SITEID":701,"TRTSDT":"2012-08-05","TRTEDT":"2012-09-01","ITTFL":"Y","SAFFL":"Y","EFFFL":"N","COMPLFL":"N","CMCLASX":"(uncoded - no WHO-DD therapeutic class in source)"},{"STUDYID":"CDISCPILOT01","USUBJID":"01-701-1023","CMSEQ":2,"CMTRT":"TUMS","CMINDC":"","CMDOSE":1,"CMDOSU":"TABLET","CMROUTE":"ORAL","ASTDT":null,"AENDT":null,"ASTDY":null,"AOCCFL":"Y","TRTP":"Placebo","TRT01P":"Placebo","TRT01PN":null,"TRT01A":"Placebo","SITEGR1":900,"SITEID":701,"TRTSDT":"2012-08-05","TRTEDT":"2012-09-01","ITTFL":"Y","SAFFL":"Y","EFFFL":"N","COMPLFL":"N","CMCLASX":"(uncoded - no WHO-DD therapeutic class in source)"},{"STUDYID":"CDISCPILOT01","USUBJID":"01-701-1023","CMSEQ":5,"CMTRT":"TUMS","CMINDC":"","CMDOSE":1,"CMDOSU":"TABLET","CMROUTE":"ORAL","ASTDT":null,"AENDT":null,"ASTDY":null,"AOCCFL":null,"TRTP":"Placebo","TRT01P":"Placebo","TRT01PN":null,"TRT01A":"Placebo","SITEGR1":900,"SITEID":701,"TRTSDT":"2012-08-05","TRTEDT":"2012-09-01","ITTFL":"Y","SAFFL":"Y","EFFFL":"N","COMPLFL":"N","CMCLASX":"(uncoded - no WHO-DD therapeutic class in source)"},{"STUDYID":"CDISCPILOT01","USUBJID":"01-701-1023","CMSEQ":8,"CMTRT":"TUMS","CMINDC":"","CMDOSE":1,"CMDOSU":"TABLET","CMROUTE":"ORAL","ASTDT":null,"AENDT":null,"ASTDY":null,"AOCCFL":null,"TRTP":"Placebo","TRT01P":"Placebo","TRT01PN":null,"TRT01A":"Placebo","SITEGR1":900,"SITEID":701,"TRTSDT":"2012-08-05","TRTEDT":"2012-09-01","ITTFL":"Y","SAFFL":"Y","EFFFL":"N","COMPLFL":"N","CMCLASX":"(uncoded - no WHO-DD therapeutic class in source)"},{"STUDYID":"CDISCPILOT01","USUBJID":"01-701-1023","CMSEQ":11,"CMTRT":"TUMS","CMINDC":"","CMDOSE":1,"CMDOSU":"TABLET","CMROUTE":"ORAL","ASTDT":null,"AENDT":null,"ASTDY":null,"AOCCFL":null,"TRTP":"Placebo","TRT01P":"Placebo","TRT01PN":null,"TRT01A":"Placebo","SITEGR1":900,"SITEID":701,"TRTSDT":"2012-08-05","TRTEDT":"2012-09-01","ITTFL":"Y","SAFFL":"Y","EFFFL":"N","COMPLFL":"N","CMCLASX":"(uncoded - no WHO-DD therapeutic class in source)"},{"STUDYID":"CDISCPILOT01","USUBJID":"01-701-1023","CMSEQ":14,"CMTRT":"TUMS","CMINDC":"","CMDOSE":1,"CMDOSU":"TABLET","CMROUTE":"ORAL","ASTDT":null,"AENDT":null,"ASTDY":null,"AOCCFL":null,"TRTP":"Placebo","TRT01P":"Placebo","TRT01PN":null,"TRT01A":"Placebo","SITEGR1":900,"SITEID":701,"TRTSDT":"2012-08-05","TRTEDT":"2012-09-01","ITTFL":"Y","SAFFL":"Y","EFFFL":"N","COMPLFL":"N","CMCLASX":"(uncoded - no WHO-DD therapeutic class in source)"},{"STUDYID":"CDISCPILOT01","USUBJID":"01-701-1023","CMSEQ":17,"CMTRT":"TUMS","CMINDC":"","CMDOSE":1,"CMDOSU":"TABLET","CMROUTE":"ORAL","ASTDT":null,"AENDT":null,"ASTDY":null,"AOCCFL":null,"TRTP":"Placebo","TRT01P":"Placebo","TRT01PN":null,"TRT01A":"Placebo","SITEGR1":900,"SITEID":701,"TRTSDT":"2012-08-05","TRTEDT":"2012-09-01","ITTFL":"Y","SAFFL":"Y","EFFFL":"N","COMPLFL":"N","CMCLASX":"(uncoded - no WHO-DD therapeutic class in source)"},{"STUDYID":"CDISCPILOT01","USUBJID":"01-701-1023","CMSEQ":20,"CMTRT":"TUMS","CMINDC":"","CMDOSE":1,"CMDOSU":"TABLET","CMROUTE":"ORAL","ASTDT":null,"AENDT":null,"ASTDY":null,"AOCCFL":null,"TRTP":"Placebo","TRT01P":"Placebo","TRT01PN":null,"TRT01A":"Placebo","SITEGR1":900,"SITEID":701,"TRTSDT":"2012-08-05","TRTEDT":"2012-09-01","ITTFL":"Y","SAFFL":"Y","EFFFL":"N","COMPLFL":"N","CMCLASX":"(uncoded - no WHO-DD therapeutic class in source)"},{"STUDYID":"CDISCPILOT01","USUBJID":"01-701-1028","CMSEQ":1,"CMTRT":"CENTRUM","CMINDC":"PROPHYLAXIS OR NON-THERAPEUTIC USE","CMDOSE":1,"CMDOSU":"TABLET","CMROUTE":"ORAL","ASTDT":null,"AENDT":null,"ASTDY":null,"AOCCFL":"Y","TRTP":"Xanomeline High Dose","TRT01P":"Xanomeline High Dose","TRT01PN":null,"TRT01A":"Xanomeline High Dose","SITEGR1":900,"SITEID":701,"TRTSDT":"2013-07-19","TRTEDT":"2014-01-14","ITTFL":"Y","SAFFL":"Y","EFFFL":"N","COMPLFL":"Y","CMCLASX":"(uncoded - no WHO-DD therapeutic class in source)"},{"STUDYID":"CDISCPILOT01","USUBJID":"01-701-1028","CMSEQ":2,"CMTRT":"CENTRUM","CMINDC":"PROPHYLAXIS OR NON-THERAPEUTIC USE","CMDOSE":1,"CMDOSU":"TABLET","CMROUTE":"ORAL","ASTDT":null,"AENDT":null,"ASTDY":null,"AOCCFL":null,"TRTP":"Xanomeline High Dose","TRT01P":"Xanomeline High Dose","TRT01PN":null,"TRT01A":"Xanomeline High Dose","SITEGR1":900,"SITEID":701,"TRTSDT":"2013-07-19","TRTEDT":"2014-01-14","ITTFL":"Y","SAFFL":"Y","EFFFL":"N","COMPLFL":"Y","CMCLASX":"(uncoded - no WHO-DD therapeutic class in source)"},{"STUDYID":"CDISCPILOT01","USUBJID":"01-701-1028","CMSEQ":3,"CMTRT":"CENTRUM","CMINDC":"PROPHYLAXIS OR NON-THERAPEUTIC USE","CMDOSE":1,"CMDOSU":"TABLET","CMROUTE":"ORAL","ASTDT":null,"AENDT":null,"ASTDY":null,"AOCCFL":null,"TRTP":"Xanomeline High Dose","TRT01P":"Xanomeline High Dose","TRT01PN":null,"TRT01A":"Xanomeline High Dose","SITEGR1":900,"SITEID":701,"TRTSDT":"2013-07-19","TRTEDT":"2014-01-14","ITTFL":"Y","SAFFL":"Y","EFFFL":"N","COMPLFL":"Y","CMCLASX":"(uncoded - no WHO-DD therapeutic class in source)"},{"STUDYID":"CDISCPILOT01","USUBJID":"01-701-1028","CMSEQ":4,"CMTRT":"CENTRUM","CMINDC":"PROPHYLAXIS OR NON-THERAPEUTIC USE","CMDOSE":1,"CMDOSU":"TABLET","CMROUTE":"ORAL","ASTDT":null,"AENDT":null,"ASTDY":null,"AOCCFL":null,"TRTP":"Xanomeline High Dose","TRT01P":"Xanomeline High Dose","TRT01PN":null,"TRT01A":"Xanomeline High Dose","SITEGR1":900,"SITEID":701,"TRTSDT":"2013-07-19","TRTEDT":"2014-01-14","ITTFL":"Y","SAFFL":"Y","EFFFL":"N","COMPLFL":"Y","CMCLASX":"(uncoded - no WHO-DD therapeutic class in source)"},{"STUDYID":"CDISCPILOT01","USUBJID":"01-701-1028","CMSEQ":5,"CMTRT":"CENTRUM","CMINDC":"PROPHYLAXIS OR NON-THERAPEUTIC USE","CMDOSE":1,"CMDOSU":"TABLET","CMROUTE":"ORAL","ASTDT":null,"AENDT":null,"ASTDY":null,"AOCCFL":null,"TRTP":"Xanomeline High Dose","TRT01P":"Xanomeline High Dose","TRT01PN":null,"TRT01A":"Xanomeline High Dose","SITEGR1":900,"SITEID":701,"TRTSDT":"2013-07-19","TRTEDT":"2014-01-14","ITTFL":"Y","SAFFL":"Y","EFFFL":"N","COMPLFL":"Y","CMCLASX":"(uncoded - no WHO-DD therapeutic class in source)"},{"STUDYID":"CDISCPILOT01","USUBJID":"01-701-1028","CMSEQ":7,"CMTRT":"CENTRUM","CMINDC":"PROPHYLAXIS OR NON-THERAPEUTIC USE","CMDOSE":1,"CMDOSU":"TABLET","CMROUTE":"ORAL","ASTDT":null,"AENDT":null,"ASTDY":null,"AOCCFL":null,"TRTP":"Xanomeline High Dose","TRT01P":"Xanomeline High Dose","TRT01PN":null,"TRT01A":"Xanomeline High Dose","SITEGR1":900,"SITEID":701,"TRTSDT":"2013-07-19","TRTEDT":"2014-01-14","ITTFL":"Y","SAFFL":"Y","EFFFL":"N","COMPLFL":"Y","CMCLASX":"(uncoded - no WHO-DD therapeutic class in source)"},{"STUDYID":"CDISCPILOT01","USUBJID":"01-701-1028","CMSEQ":9,"CMTRT":"CENTRUM","CMINDC":"PROPHYLAXIS OR NON-THERAPEUTIC USE","CMDOSE":1,"CMDOSU":"TABLET","CMROUTE":"ORAL","ASTDT":null,"AENDT":null,"ASTDY":null,"AOCCFL":null,"TRTP":"Xanomeline High Dose","TRT01P":"Xanomeline High Dose","TRT01PN":null,"TRT01A":"Xanomeline High Dose","SITEGR1":900,"SITEID":701,"TRTSDT":"2013-07-19","TRTEDT":"2014-01-14","ITTFL":"Y","SAFFL":"Y","EFFFL":"N","COMPLFL":"Y","CMCLASX":"(uncoded - no WHO-DD therapeutic class in source)"},{"STUDYID":"CDISCPILOT01","USUBJID":"01-701-1028","CMSEQ":11,"CMTRT":"CENTRUM","CMINDC":"PROPHYLAXIS OR NON-THERAPEUTIC USE","CMDOSE":1,"CMDOSU":"TABLET","CMROUTE":"ORAL","ASTDT":null,"AENDT":null,"ASTDY":null,"AOCCFL":null,"TRTP":"Xanomeline High Dose","TRT01P":"Xanomeline High Dose","TRT01PN":null,"TRT01A":"Xanomeline High Dose","SITEGR1":900,"SITEID":701,"TRTSDT":"2013-07-19","TRTEDT":"2014-01-14","ITTFL":"Y","SAFFL":"Y","EFFFL":"N","COMPLFL":"Y","CMCLASX":"(uncoded - no WHO-DD therapeutic class in source)"},{"STUDYID":"CDISCPILOT01","USUBJID":"01-701-1028","CMSEQ":13,"CMTRT":"CENTRUM","CMINDC":"PROPHYLAXIS OR NON-THERAPEUTIC USE","CMDOSE":1,"CMDOSU":"TABLET","CMROUTE":"ORAL","ASTDT":null,"AENDT":null,"ASTDY":null,"AOCCFL":null,"TRTP":"Xanomeline High Dose","TRT01P":"Xanomeline High Dose","TRT01PN":null,"TRT01A":"Xanomeline High Dose","SITEGR1":900,"SITEID":701,"TRTSDT":"2013-07-19","TRTEDT":"2014-01-14","ITTFL":"Y","SAFFL":"Y","EFFFL":"N","COMPLFL":"Y","CMCLASX":"(uncoded - no WHO-DD therapeutic class in source)"},{"STUDYID":"CDISCPILOT01","USUBJID":"01-701-1028","CMSEQ":15,"CMTRT":"CENTRUM","CMINDC":"PROPHYLAXIS OR NON-THERAPEUTIC USE","CMDOSE":1,"CMDOSU":"TABLET","CMROUTE":"ORAL","ASTDT":null,"AENDT":null,"ASTDY":null,"AOCCFL":null,"TRTP":"Xanomeline High Dose","TRT01P":"Xanomeline High Dose","TRT01PN":null,"TRT01A":"Xanomeline High Dose","SITEGR1":900,"SITEID":701,"TRTSDT":"2013-07-19","TRTEDT":"2014-01-14","ITTFL":"Y","SAFFL":"Y","EFFFL":"N","COMPLFL":"Y","CMCLASX":"(uncoded - no WHO-DD therapeutic class in source)"},{"STUDYID":"CDISCPILOT01","USUBJID":"01-701-1028","CMSEQ":17,"CMTRT":"CENTRUM","CMINDC":"PROPHYLAXIS OR NON-THERAPEUTIC USE","CMDOSE":1,"CMDOSU":"TABLET","CMROUTE":"ORAL","ASTDT":null,"AENDT":null,"ASTDY":null,"AOCCFL":null,"TRTP":"Xanomeline High Dose","TRT01P":"Xanomeline High Dose","TRT01PN":null,"TRT01A":"Xanomeline High Dose","SITEGR1":900,"SITEID":701,"TRTSDT":"2013-07-19","TRTEDT":"2014-01-14","ITTFL":"Y","SAFFL":"Y","EFFFL":"N","COMPLFL":"Y","CMCLASX":"(uncoded - no WHO-DD therapeutic class in source)"},{"STUDYID":"CDISCPILOT01","USUBJID":"01-701-1028","CMSEQ":19,"CMTRT":"CENTRUM","CMINDC":"PROPHYLAXIS OR NON-THERAPEUTIC USE","CMDOSE":1,"CMDOSU":"TABLET","CMROUTE":"ORAL","ASTDT":null,"AENDT":null,"ASTDY":null,"AOCCFL":null,"TRTP":"Xanomeline High Dose","TRT01P":"Xanomeline High Dose","TRT01PN":null,"TRT01A":"Xanomeline High Dose","SITEGR1":900,"SITEID":701,"TRTSDT":"2013-07-19","TRTEDT":"2014-01-14","ITTFL":"Y","SAFFL":"Y","EFFFL":"N","COMPLFL":"Y","CMCLASX":"(uncoded - no WHO-DD therapeutic class in source)"},{"STUDYID":"CDISCPILOT01","USUBJID":"01-701-1028","CMSEQ":21,"CMTRT":"CENTRUM","CMINDC":"PROPHYLAXIS OR NON-THERAPEUTIC USE","CMDOSE":1,"CMDOSU":"TABLET","CMROUTE":"ORAL","ASTDT":null,"AENDT":null,"ASTDY":null,"AOCCFL":null,"TRTP":"Xanomeline High Dose","TRT01P":"Xanomeline High Dose","TRT01PN":null,"TRT01A":"Xanomeline High Dose","SITEGR1":900,"SITEID":701,"TRTSDT":"2013-07-19","TRTEDT":"2014-01-14","ITTFL":"Y","SAFFL":"Y","EFFFL":"N","COMPLFL":"Y","CMCLASX":"(uncoded - no WHO-DD therapeutic class in source)"},{"STUDYID":"CDISCPILOT01","USUBJID":"01-701-1028","CMSEQ":6,"CMTRT":"HYDROCORTISONE","CMINDC":"","CMDOSE":1,"CMDOSU":"VIAL","CMROUTE":"TOPICAL","ASTDT":"2013-08-08","AENDT":null,"ASTDY":21,"AOCCFL":"Y","TRTP":"Xanomeline High Dose","TRT01P":"Xanomeline High Dose","TRT01PN":null,"TRT01A":"Xanomeline High Dose","SITEGR1":900,"SITEID":701,"TRTSDT":"2013-07-19","TRTEDT":"2014-01-14","ITTFL":"Y","SAFFL":"Y","EFFFL":"N","COMPLFL":"Y","CMCLASX":"(uncoded - no WHO-DD therapeutic class in source)"},{"STUDYID":"CDISCPILOT01","USUBJID":"01-701-1028","CMSEQ":8,"CMTRT":"HYDROCORTISONE","CMINDC":"","CMDOSE":1,"CMDOSU":"VIAL","CMROUTE":"TOPICAL","ASTDT":"2013-08-08","AENDT":null,"ASTDY":21,"AOCCFL":null,"TRTP":"Xanomeline High Dose","TRT01P":"Xanomeline High Dose","TRT01PN":null,"TRT01A":"Xanomeline High Dose","SITEGR1":900,"SITEID":701,"TRTSDT":"2013-07-19","TRTEDT":"2014-01-14","ITTFL":"Y","SAFFL":"Y","EFFFL":"N","COMPLFL":"Y","CMCLASX":"(uncoded - no WHO-DD therapeutic class in source)"},{"STUDYID":"CDISCPILOT01","USUBJID":"01-701-1028","CMSEQ":10,"CMTRT":"HYDROCORTISONE","CMINDC":"","CMDOSE":1,"CMDOSU":"VIAL","CMROUTE":"TOPICAL","ASTDT":"2013-08-08","AENDT":null,"ASTDY":21,"AOCCFL":null,"TRTP":"Xanomeline High Dose","TRT01P":"Xanomeline High Dose","TRT01PN":null,"TRT01A":"Xanomeline High Dose","SITEGR1":900,"SITEID":701,"TRTSDT":"2013-07-19","TRTEDT":"2014-01-14","ITTFL":"Y","SAFFL":"Y","EFFFL":"N","COMPLFL":"Y","CMCLASX":"(uncoded - no WHO-DD therapeutic class in source)"},{"STUDYID":"CDISCPILOT01","USUBJID":"01-701-1028","CMSEQ":12,"CMTRT":"HYDROCORTISONE","CMINDC":"","CMDOSE":1,"CMDOSU":"VIAL","CMROUTE":"TOPICAL","ASTDT":"2013-08-08","AENDT":null,"ASTDY":21,"AOCCFL":null,"TRTP":"Xanomeline High Dose","TRT01P":"Xanomeline High Dose","TRT01PN":null,"TRT01A":"Xanomeline High Dose","SITEGR1":900,"SITEID":701,"TRTSDT":"2013-07-19","TRTEDT":"2014-01-14","ITTFL":"Y","SAFFL":"Y","EFFFL":"N","COMPLFL":"Y","CMCLASX":"(uncoded - no WHO-DD therapeutic class in source)"},{"STUDYID":"CDISCPILOT01","USUBJID":"01-701-1028","CMSEQ":14,"CMTRT":"HYDROCORTISONE","CMINDC":"","CMDOSE":1,"CMDOSU":"VIAL","CMROUTE":"TOPICAL","ASTDT":"2013-08-08","AENDT":null,"ASTDY":21,"AOCCFL":null,"TRTP":"Xanomeline High Dose","TRT01P":"Xanomeline High Dose","TRT01PN":null,"TRT01A":"Xanomeline High Dose","SITEGR1":900,"SITEID":701,"TRTSDT":"2013-07-19","TRTEDT":"2014-01-14","ITTFL":"Y","SAFFL":"Y","EFFFL":"N","COMPLFL":"Y","CMCLASX":"(uncoded - no WHO-DD therapeutic class in source)"},{"STUDYID":"CDISCPILOT01","USUBJID":"01-701-1028","CMSEQ":16,"CMTRT":"HYDROCORTISONE","CMINDC":"","CMDOSE":1,"CMDOSU":"VIAL","CMROUTE":"TOPICAL","ASTDT":"2013-08-08","AENDT":null,"ASTDY":21,"AOCCFL":null,"TRTP":"Xanomeline High Dose","TRT01P":"Xanomeline High Dose","TRT01PN":null,"TRT01A":"Xanomeline High Dose","SITEGR1":900,"SITEID":701,"TRTSDT":"2013-07-19","TRTEDT":"2014-01-14","ITTFL":"Y","SAFFL":"Y","EFFFL":"N","COMPLFL":"Y","CMCLASX":"(uncoded - no WHO-DD therapeutic class in source)"},{"STUDYID":"CDISCPILOT01","USUBJID":"01-701-1028","CMSEQ":18,"CMTRT":"HYDROCORTISONE","CMINDC":"","CMDOSE":1,"CMDOSU":"VIAL","CMROUTE":"TOPICAL","ASTDT":"2013-08-08","AENDT":null,"ASTDY":21,"AOCCFL":null,"TRTP":"Xanomeline High Dose","TRT01P":"Xanomeline High Dose","TRT01PN":null,"TRT01A":"Xanomeline High Dose","SITEGR1":900,"SITEID":701,"TRTSDT":"2013-07-19","TRTEDT":"2014-01-14","ITTFL":"Y","SAFFL":"Y","EFFFL":"N","COMPLFL":"Y","CMCLASX":"(uncoded - no WHO-DD therapeutic class in source)"},{"STUDYID":"CDISCPILOT01","USUBJID":"01-701-1028","CMSEQ":20,"CMTRT":"HYDROCORTISONE","CMINDC":"","CMDOSE":1,"CMDOSU":"VIAL","CMROUTE":"TOPICAL","ASTDT":"2013-08-08","AENDT":null,"ASTDY":21,"AOCCFL":null,"TRTP":"Xanomeline High Dose","TRT01P":"Xanomeline High Dose","TRT01PN":null,"TRT01A":"Xanomeline High Dose","SITEGR1":900,"SITEID":701,"TRTSDT":"2013-07-19","TRTEDT":"2014-01-14","ITTFL":"Y","SAFFL":"Y","EFFFL":"N","COMPLFL":"Y","CMCLASX":"(uncoded - no WHO-DD therapeutic class in source)"},{"STUDYID":"CDISCPILOT01","USUBJID":"01-701-1028","CMSEQ":22,"CMTRT":"HYDROCORTISONE","CMINDC":"","CMDOSE":1,"CMDOSU":"VIAL","CMROUTE":"TOPICAL","ASTDT":"2013-08-08","AENDT":null,"ASTDY":21,"AOCCFL":null,"TRTP":"Xanomeline High Dose","TRT01P":"Xanomeline High Dose","TRT01PN":null,"TRT01A":"Xanomeline High Dose","SITEGR1":900,"SITEID":701,"TRTSDT":"2013-07-19","TRTEDT":"2014-01-14","ITTFL":"Y","SAFFL":"Y","EFFFL":"N","COMPLFL":"Y","CMCLASX":"(uncoded - no WHO-DD therapeutic class in source)"},{"STUDYID":"CDISCPILOT01","USUBJID":"01-701-1033","CMSEQ":1,"CMTRT":"CALCIUM","CMINDC":"PROPHYLAXIS OR NON-THERAPEUTIC USE","CMDOSE":1,"CMDOSU":"TABLET","CMROUTE":"ORAL","ASTDT":null,"AENDT":null,"ASTDY":null,"AOCCFL":"Y","TRTP":"Xanomeline Low Dose","TRT01P":"Xanomeline Low Dose","TRT01PN":null,"TRT01A":"Xanomeline Low Dose","SITEGR1":900,"SITEID":701,"TRTSDT":"2014-03-18","TRTEDT":"2014-03-31","ITTFL":"Y","SAFFL":"Y","EFFFL":"N","COMPLFL":"N","CMCLASX":"(uncoded - no WHO-DD therapeutic class in source)"},{"STUDYID":"CDISCPILOT01","USUBJID":"01-701-1033","CMSEQ":5,"CMTRT":"CALCIUM","CMINDC":"PROPHYLAXIS OR NON-THERAPEUTIC USE","CMDOSE":1,"CMDOSU":"TABLET","CMROUTE":"ORAL","ASTDT":null,"AENDT":null,"ASTDY":null,"AOCCFL":null,"TRTP":"Xanomeline Low Dose","TRT01P":"Xanomeline Low Dose","TRT01PN":null,"TRT01A":"Xanomeline Low Dose","SITEGR1":900,"SITEID":701,"TRTSDT":"2014-03-18","TRTEDT":"2014-03-31","ITTFL":"Y","SAFFL":"Y","EFFFL":"N","COMPLFL":"N","CMCLASX":"(uncoded - no WHO-DD therapeutic class in source)"},{"STUDYID":"CDISCPILOT01","USUBJID":"01-701-1033","CMSEQ":9,"CMTRT":"CALCIUM","CMINDC":"PROPHYLAXIS OR NON-THERAPEUTIC USE","CMDOSE":1,"CMDOSU":"TABLET","CMROUTE":"ORAL","ASTDT":null,"AENDT":null,"ASTDY":null,"AOCCFL":null,"TRTP":"Xanomeline Low Dose","TRT01P":"Xanomeline Low Dose","TRT01PN":null,"TRT01A":"Xanomeline Low Dose","SITEGR1":900,"SITEID":701,"TRTSDT":"2014-03-18","TRTEDT":"2014-03-31","ITTFL":"Y","SAFFL":"Y","EFFFL":"N","COMPLFL":"N","CMCLASX":"(uncoded - no WHO-DD therapeutic class in source)"},{"STUDYID":"CDISCPILOT01","USUBJID":"01-701-1033","CMSEQ":13,"CMTRT":"CALCIUM","CMINDC":"PROPHYLAXIS OR NON-THERAPEUTIC USE","CMDOSE":1,"CMDOSU":"TABLET","CMROUTE":"ORAL","ASTDT":null,"AENDT":null,"ASTDY":null,"AOCCFL":null,"TRTP":"Xanomeline Low Dose","TRT01P":"Xanomeline Low Dose","TRT01PN":null,"TRT01A":"Xanomeline Low Dose","SITEGR1":900,"SITEID":701,"TRTSDT":"2014-03-18","TRTEDT":"2014-03-31","ITTFL":"Y","SAFFL":"Y","EFFFL":"N","COMPLFL":"N","CMCLASX":"(uncoded - no WHO-DD therapeutic class in source)"},{"STUDYID":"CDISCPILOT01","USUBJID":"01-701-1033","CMSEQ":17,"CMTRT":"CALCIUM","CMINDC":"PROPHYLAXIS OR NON-THERAPEUTIC USE","CMDOSE":1,"CMDOSU":"TABLET","CMROUTE":"ORAL","ASTDT":null,"AENDT":null,"ASTDY":null,"AOCCFL":null,"TRTP":"Xanomeline Low Dose","TRT01P":"Xanomeline Low Dose","TRT01PN":null,"TRT01A":"Xanomeline Low Dose","SITEGR1":900,"SITEID":701,"TRTSDT":"2014-03-18","TRTEDT":"2014-03-31","ITTFL":"Y","SAFFL":"Y","EFFFL":"N","COMPLFL":"N","CMCLASX":"(uncoded - no WHO-DD therapeutic class in source)"},{"STUDYID":"CDISCPILOT01","USUBJID":"01-701-1033","CMSEQ":21,"CMTRT":"CALCIUM","CMINDC":"PROPHYLAXIS OR NON-THERAPEUTIC USE","CMDOSE":1,"CMDOSU":"TABLET","CMROUTE":"ORAL","ASTDT":null,"AENDT":null,"ASTDY":null,"AOCCFL":null,"TRTP":"Xanomeline Low Dose","TRT01P":"Xanomeline Low Dose","TRT01PN":null,"TRT01A":"Xanomeline Low Dose","SITEGR1":900,"SITEID":701,"TRTSDT":"2014-03-18","TRTEDT":"2014-03-31","ITTFL":"Y","SAFFL":"Y","EFFFL":"N","COMPLFL":"N","CMCLASX":"(uncoded - no WHO-DD therapeutic class in source)"},{"STUDYID":"CDISCPILOT01","USUBJID":"01-701-1033","CMSEQ":2,"CMTRT":"COD-LIVER OIL","CMINDC":"PROPHYLAXIS OR NON-THERAPEUTIC USE","CMDOSE":1,"CMDOSU":"CAPSULE","CMROUTE":"ORAL","ASTDT":null,"AENDT":null,"ASTDY":null,"AOCCFL":"Y","TRTP":"Xanomeline Low Dose","TRT01P":"Xanomeline Low Dose","TRT01PN":null,"TRT01A":"Xanomeline Low Dose","SITEGR1":900,"SITEID":701,"TRTSDT":"2014-03-18","TRTEDT":"2014-03-31","ITTFL":"Y","SAFFL":"Y","EFFFL":"N","COMPLFL":"N","CMCLASX":"(uncoded - no WHO-DD therapeutic class in source)"},{"STUDYID":"CDISCPILOT01","USUBJID":"01-701-1033","CMSEQ":6,"CMTRT":"COD-LIVER OIL","CMINDC":"PROPHYLAXIS OR NON-THERAPEUTIC USE","CMDOSE":1,"CMDOSU":"CAPSULE","CMROUTE":"ORAL","ASTDT":null,"AENDT":null,"ASTDY":null,"AOCCFL":null,"TRTP":"Xanomeline Low Dose","TRT01P":"Xanomeline Low Dose","TRT01PN":null,"TRT01A":"Xanomeline Low Dose","SITEGR1":900,"SITEID":701,"TRTSDT":"2014-03-18","TRTEDT":"2014-03-31","ITTFL":"Y","SAFFL":"Y","EFFFL":"N","COMPLFL":"N","CMCLASX":"(uncoded - no WHO-DD therapeutic class in source)"},{"STUDYID":"CDISCPILOT01","USUBJID":"01-701-1033","CMSEQ":10,"CMTRT":"COD-LIVER OIL","CMINDC":"PROPHYLAXIS OR NON-THERAPEUTIC USE","CMDOSE":1,"CMDOSU":"CAPSULE","CMROUTE":"ORAL","ASTDT":null,"AENDT":null,"ASTDY":null,"AOCCFL":null,"TRTP":"Xanomeline Low Dose","TRT01P":"Xanomeline Low Dose","TRT01PN":null,"TRT01A":"Xanomeline Low Dose","SITEGR1":900,"SITEID":701,"TRTSDT":"2014-03-18","TRTEDT":"2014-03-31","ITTFL":"Y","SAFFL":"Y","EFFFL":"N","COMPLFL":"N","CMCLASX":"(uncoded - no WHO-DD therapeutic class in source)"},{"STUDYID":"CDISCPILOT01","USUBJID":"01-701-1033","CMSEQ":14,"CMTRT":"COD-LIVER OIL","CMINDC":"PROPHYLAXIS OR NON-THERAPEUTIC USE","CMDOSE":1,"CMDOSU":"CAPSULE","CMROUTE":"ORAL","ASTDT":null,"AENDT":null,"ASTDY":null,"AOCCFL":null,"TRTP":"Xanomeline Low Dose","TRT01P":"Xanomeline Low Dose","TRT01PN":null,"TRT01A":"Xanomeline Low Dose","SITEGR1":900,"SITEID":701,"TRTSDT":"2014-03-18","TRTEDT":"2014-03-31","ITTFL":"Y","SAFFL":"Y","EFFFL":"N","COMPLFL":"N","CMCLASX":"(uncoded - no WHO-DD therapeutic class in source)"},{"STUDYID":"CDISCPILOT01","USUBJID":"01-701-1033","CMSEQ":18,"CMTRT":"COD-LIVER OIL","CMINDC":"PROPHYLAXIS OR NON-THERAPEUTIC USE","CMDOSE":1,"CMDOSU":"CAPSULE","CMROUTE":"ORAL","ASTDT":null,"AENDT":null,"ASTDY":null,"AOCCFL":null,"TRTP":"Xanomeline Low Dose","TRT01P":"Xanomeline Low Dose","TRT01PN":null,"TRT01A":"Xanomeline Low Dose","SITEGR1":900,"SITEID":701,"TRTSDT":"2014-03-18","TRTEDT":"2014-03-31","ITTFL":"Y","SAFFL":"Y","EFFFL":"N","COMPLFL":"N","CMCLASX":"(uncoded - no WHO-DD therapeutic class in source)"},{"STUDYID":"CDISCPILOT01","USUBJID":"01-701-1033","CMSEQ":22,"CMTRT":"COD-LIVER OIL","CMINDC":"PROPHYLAXIS OR NON-THERAPEUTIC USE","CMDOSE":1,"CMDOSU":"CAPSULE","CMROUTE":"ORAL","ASTDT":null,"AENDT":null,"ASTDY":null,"AOCCFL":null,"TRTP":"Xanomeline Low Dose","TRT01P":"Xanomeline Low Dose","TRT01PN":null,"TRT01A":"Xanomeline Low Dose","SITEGR1":900,"SITEID":701,"TRTSDT":"2014-03-18","TRTEDT":"2014-03-31","ITTFL":"Y","SAFFL":"Y","EFFFL":"N","COMPLFL":"N","CMCLASX":"(uncoded - no WHO-DD therapeutic class in source)"},{"STUDYID":"CDISCPILOT01","USUBJID":"01-701-1033","CMSEQ":4,"CMTRT":"NITROGLYCERIN","CMINDC":"","CMDOSE":0.4,"CMDOSU":"mg","CMROUTE":"SUBLINGUAL","ASTDT":null,"AENDT":null,"ASTDY":null,"AOCCFL":"Y","TRTP":"Xanomeline Low Dose","TRT01P":"Xanomeline Low Dose","TRT01PN":null,"TRT01A":"Xanomeline Low Dose","SITEGR1":900,"SITEID":701,"TRTSDT":"2014-03-18","TRTEDT":"2014-03-31","ITTFL":"Y","SAFFL":"Y","EFFFL":"N","COMPLFL":"N","CMCLASX":"(uncoded - no WHO-DD therapeutic class in source)"},{"STUDYID":"CDISCPILOT01","USUBJID":"01-701-1033","CMSEQ":8,"CMTRT":"NITROGLYCERIN","CMINDC":"","CMDOSE":0.4,"CMDOSU":"mg","CMROUTE":"SUBLINGUAL","ASTDT":null,"AENDT":null,"ASTDY":null,"AOCCFL":null,"TRTP":"Xanomeline Low Dose","TRT01P":"Xanomeline Low Dose","TRT01PN":null,"TRT01A":"Xanomeline Low Dose","SITEGR1":900,"SITEID":701,"TRTSDT":"2014-03-18","TRTEDT":"2014-03-31","ITTFL":"Y","SAFFL":"Y","EFFFL":"N","COMPLFL":"N","CMCLASX":"(uncoded - no WHO-DD therapeutic class in source)"},{"STUDYID":"CDISCPILOT01","USUBJID":"01-701-1033","CMSEQ":12,"CMTRT":"NITROGLYCERIN","CMINDC":"","CMDOSE":0.4,"CMDOSU":"mg","CMROUTE":"SUBLINGUAL","ASTDT":null,"AENDT":null,"ASTDY":null,"AOCCFL":null,"TRTP":"Xanomeline Low Dose","TRT01P":"Xanomeline Low Dose","TRT01PN":null,"TRT01A":"Xanomeline Low Dose","SITEGR1":900,"SITEID":701,"TRTSDT":"2014-03-18","TRTEDT":"2014-03-31","ITTFL":"Y","SAFFL":"Y","EFFFL":"N","COMPLFL":"N","CMCLASX":"(uncoded - no WHO-DD therapeutic class in source)"},{"STUDYID":"CDISCPILOT01","USUBJID":"01-701-1033","CMSEQ":16,"CMTRT":"NITROGLYCERIN","CMINDC":"","CMDOSE":0.4,"CMDOSU":"mg","CMROUTE":"SUBLINGUAL","ASTDT":null,"AENDT":null,"ASTDY":null,"AOCCFL":null,"TRTP":"Xanomeline Low Dose","TRT01P":"Xanomeline Low Dose","TRT01PN":null,"TRT01A":"Xanomeline Low Dose","SITEGR1":900,"SITEID":701,"TRTSDT":"2014-03-18","TRTEDT":"2014-03-31","ITTFL":"Y","SAFFL":"Y","EFFFL":"N","COMPLFL":"N","CMCLASX":"(uncoded - no WHO-DD therapeutic class in source)"},{"STUDYID":"CDISCPILOT01","USUBJID":"01-701-1033","CMSEQ":20,"CMTRT":"NITROGLYCERIN","CMINDC":"","CMDOSE":0.4,"CMDOSU":"mg","CMROUTE":"SUBLINGUAL","ASTDT":null,"AENDT":null,"ASTDY":null,"AOCCFL":null,"TRTP":"Xanomeline Low Dose","TRT01P":"Xanomeline Low Dose","TRT01PN":null,"TRT01A":"Xanomeline Low Dose","SITEGR1":900,"SITEID":701,"TRTSDT":"2014-03-18","TRTEDT":"2014-03-31","ITTFL":"Y","SAFFL":"Y","EFFFL":"N","COMPLFL":"N","CMCLASX":"(uncoded - no WHO-DD therapeutic class in source)"},{"STUDYID":"CDISCPILOT01","USUBJID":"01-701-1033","CMSEQ":24,"CMTRT":"NITROGLYCERIN","CMINDC":"","CMDOSE":0.4,"CMDOSU":"mg","CMROUTE":"SUBLINGUAL","ASTDT":null,"AENDT":null,"ASTDY":null,"AOCCFL":null,"TRTP":"Xanomeline Low Dose","TRT01P":"Xanomeline Low Dose","TRT01PN":null,"TRT01A":"Xanomeline Low Dose","SITEGR1":900,"SITEID":701,"TRTSDT":"2014-03-18","TRTEDT":"2014-03-31","ITTFL":"Y","SAFFL":"Y","EFFFL":"N","COMPLFL":"N","CMCLASX":"(uncoded - no WHO-DD therapeutic class in source)"},{"STUDYID":"CDISCPILOT01","USUBJID":"01-701-1033","CMSEQ":3,"CMTRT":"ZINC","CMINDC":"PROPHYLAXIS OR NON-THERAPEUTIC USE","CMDOSE":1,"CMDOSU":"TABLET","CMROUTE":"ORAL","ASTDT":null,"AENDT":null,"ASTDY":null,"AOCCFL":"Y","TRTP":"Xanomeline Low Dose","TRT01P":"Xanomeline Low Dose","TRT01PN":null,"TRT01A":"Xanomeline Low Dose","SITEGR1":900,"SITEID":701,"TRTSDT":"2014-03-18","TRTEDT":"2014-03-31","ITTFL":"Y","SAFFL":"Y","EFFFL":"N","COMPLFL":"N","CMCLASX":"(uncoded - no WHO-DD therapeutic class in source)"},{"STUDYID":"CDISCPILOT01","USUBJID":"01-701-1033","CMSEQ":7,"CMTRT":"ZINC","CMINDC":"PROPHYLAXIS OR NON-THERAPEUTIC USE","CMDOSE":1,"CMDOSU":"TABLET","CMROUTE":"ORAL","ASTDT":null,"AENDT":null,"ASTDY":null,"AOCCFL":null,"TRTP":"Xanomeline Low Dose","TRT01P":"Xanomeline Low Dose","TRT01PN":null,"TRT01A":"Xanomeline Low Dose","SITEGR1":900,"SITEID":701,"TRTSDT":"2014-03-18","TRTEDT":"2014-03-31","ITTFL":"Y","SAFFL":"Y","EFFFL":"N","COMPLFL":"N","CMCLASX":"(uncoded - no WHO-DD therapeutic class in source)"},{"STUDYID":"CDISCPILOT01","USUBJID":"01-701-1033","CMSEQ":11,"CMTRT":"ZINC","CMINDC":"PROPHYLAXIS OR NON-THERAPEUTIC USE","CMDOSE":1,"CMDOSU":"TABLET","CMROUTE":"ORAL","ASTDT":null,"AENDT":null,"ASTDY":null,"AOCCFL":null,"TRTP":"Xanomeline Low Dose","TRT01P":"Xanomeline Low Dose","TRT01PN":null,"TRT01A":"Xanomeline Low Dose","SITEGR1":900,"SITEID":701,"TRTSDT":"2014-03-18","TRTEDT":"2014-03-31","ITTFL":"Y","SAFFL":"Y","EFFFL":"N","COMPLFL":"N","CMCLASX":"(uncoded - no WHO-DD therapeutic class in source)"},{"STUDYID":"CDISCPILOT01","USUBJID":"01-701-1033","CMSEQ":15,"CMTRT":"ZINC","CMINDC":"PROPHYLAXIS OR NON-THERAPEUTIC USE","CMDOSE":1,"CMDOSU":"TABLET","CMROUTE":"ORAL","ASTDT":null,"AENDT":null,"ASTDY":null,"AOCCFL":null,"TRTP":"Xanomeline Low Dose","TRT01P":"Xanomeline Low Dose","TRT01PN":null,"TRT01A":"Xanomeline Low Dose","SITEGR1":900,"SITEID":701,"TRTSDT":"2014-03-18","TRTEDT":"2014-03-31","ITTFL":"Y","SAFFL":"Y","EFFFL":"N","COMPLFL":"N","CMCLASX":"(uncoded - no WHO-DD therapeutic class in source)"},{"STUDYID":"CDISCPILOT01","USUBJID":"01-701-1033","CMSEQ":19,"CMTRT":"ZINC","CMINDC":"PROPHYLAXIS OR NON-THERAPEUTIC USE","CMDOSE":1,"CMDOSU":"TABLET","CMROUTE":"ORAL","ASTDT":null,"AENDT":null,"ASTDY":null,"AOCCFL":null,"TRTP":"Xanomeline Low Dose","TRT01P":"Xanomeline Low Dose","TRT01PN":null,"TRT01A":"Xanomeline Low Dose","SITEGR1":900,"SITEID":701,"TRTSDT":"2014-03-18","TRTEDT":"2014-03-31","ITTFL":"Y","SAFFL":"Y","EFFFL":"N","COMPLFL":"N","CMCLASX":"(uncoded - no WHO-DD therapeutic class in source)"},{"STUDYID":"CDISCPILOT01","USUBJID":"01-701-1033","CMSEQ":23,"CMTRT":"ZINC","CMINDC":"PROPHYLAXIS OR NON-THERAPEUTIC USE","CMDOSE":1,"CMDOSU":"TABLET","CMROUTE":"ORAL","ASTDT":null,"AENDT":null,"ASTDY":null,"AOCCFL":null,"TRTP":"Xanomeline Low Dose","TRT01P":"Xanomeline Low Dose","TRT01PN":null,"TRT01A":"Xanomeline Low Dose","SITEGR1":900,"SITEID":701,"TRTSDT":"2014-03-18","TRTEDT":"2014-03-31","ITTFL":"Y","SAFFL":"Y","EFFFL":"N","COMPLFL":"N","CMCLASX":"(uncoded - no WHO-DD therapeutic class in source)"},{"STUDYID":"CDISCPILOT01","USUBJID":"01-701-1034","CMSEQ":6,"CMTRT":"CALCIUM","CMINDC":"PROPHYLAXIS OR NON-THERAPEUTIC USE","CMDOSE":1,"CMDOSU":"TABLET","CMROUTE":"ORAL","ASTDT":null,"AENDT":null,"ASTDY":null,"AOCCFL":"Y","TRTP":"Xanomeline High Dose","TRT01P":"Xanomeline High Dose","TRT01PN":null,"TRT01A":"Xanomeline High Dose","SITEGR1":900,"SITEID":701,"TRTSDT":"2014-07-01","TRTEDT":"2014-12-30","ITTFL":"Y","SAFFL":"Y","EFFFL":"N","COMPLFL":"Y","CMCLASX":"(uncoded - no WHO-DD therapeutic class in source)"},{"STUDYID":"CDISCPILOT01","USUBJID":"01-701-1034","CMSEQ":13,"CMTRT":"CALCIUM","CMINDC":"PROPHYLAXIS OR NON-THERAPEUTIC USE","CMDOSE":1,"CMDOSU":"TABLET","CMROUTE":"ORAL","ASTDT":null,"AENDT":null,"ASTDY":null,"AOCCFL":null,"TRTP":"Xanomeline High Dose","TRT01P":"Xanomeline High Dose","TRT01PN":null,"TRT01A":"Xanomeline High Dose","SITEGR1":900,"SITEID":701,"TRTSDT":"2014-07-01","TRTEDT":"2014-12-30","ITTFL":"Y","SAFFL":"Y","EFFFL":"N","COMPLFL":"Y","CMCLASX":"(uncoded - no WHO-DD therapeutic class in source)"},{"STUDYID":"CDISCPILOT01","USUBJID":"01-701-1034","CMSEQ":20,"CMTRT":"CALCIUM","CMINDC":"PROPHYLAXIS OR NON-THERAPEUTIC USE","CMDOSE":1,"CMDOSU":"TABLET","CMROUTE":"ORAL","ASTDT":null,"AENDT":null,"ASTDY":null,"AOCCFL":null,"TRTP":"Xanomeline High Dose","TRT01P":"Xanomeline High Dose","TRT01PN":null,"TRT01A":"Xanomeline High Dose","SITEGR1":900,"SITEID":701,"TRTSDT":"2014-07-01","TRTEDT":"2014-12-30","ITTFL":"Y","SAFFL":"Y","EFFFL":"N","COMPLFL":"Y","CMCLASX":"(uncoded - no WHO-DD therapeutic class in source)"},{"STUDYID":"CDISCPILOT01","USUBJID":"01-701-1034","CMSEQ":27,"CMTRT":"CALCIUM","CMINDC":"PROPHYLAXIS OR NON-THERAPEUTIC USE","CMDOSE":1,"CMDOSU":"TABLET","CMROUTE":"ORAL","ASTDT":null,"AENDT":null,"ASTDY":null,"AOCCFL":null,"TRTP":"Xanomeline High Dose","TRT01P":"Xanomeline High Dose","TRT01PN":null,"TRT01A":"Xanomeline High Dose","SITEGR1":900,"SITEID":701,"TRTSDT":"2014-07-01","TRTEDT":"2014-12-30","ITTFL":"Y","SAFFL":"Y","EFFFL":"N","COMPLFL":"Y","CMCLASX":"(uncoded - no WHO-DD therapeutic class in source)"},{"STUDYID":"CDISCPILOT01","USUBJID":"01-701-1034","CMSEQ":34,"CMTRT":"CALCIUM","CMINDC":"PROPHYLAXIS OR NON-THERAPEUTIC USE","CMDOSE":1,"CMDOSU":"TABLET","CMROUTE":"ORAL","ASTDT":null,"AENDT":null,"ASTDY":null,"AOCCFL":null,"TRTP":"Xanomeline High Dose","TRT01P":"Xanomeline High Dose","TRT01PN":null,"TRT01A":"Xanomeline High Dose","SITEGR1":900,"SITEID":701,"TRTSDT":"2014-07-01","TRTEDT":"2014-12-30","ITTFL":"Y","SAFFL":"Y","EFFFL":"N","COMPLFL":"Y","CMCLASX":"(uncoded - no WHO-DD therapeutic class in source)"},{"STUDYID":"CDISCPILOT01","USUBJID":"01-701-1034","CMSEQ":41,"CMTRT":"CALCIUM","CMINDC":"PROPHYLAXIS OR NON-THERAPEUTIC USE","CMDOSE":1,"CMDOSU":"TABLET","CMROUTE":"ORAL","ASTDT":null,"AENDT":null,"ASTDY":null,"AOCCFL":null,"TRTP":"Xanomeline High Dose","TRT01P":"Xanomeline High Dose","TRT01PN":null,"TRT01A":"Xanomeline High Dose","SITEGR1":900,"SITEID":701,"TRTSDT":"2014-07-01","TRTEDT":"2014-12-30","ITTFL":"Y","SAFFL":"Y","EFFFL":"N","COMPLFL":"Y","CMCLASX":"(uncoded - no WHO-DD therapeutic class in source)"},{"STUDYID":"CDISCPILOT01","USUBJID":"01-701-1034","CMSEQ":48,"CMTRT":"CALCIUM","CMINDC":"PROPHYLAXIS OR NON-THERAPEUTIC USE","CMDOSE":1,"CMDOSU":"TABLET","CMROUTE":"ORAL","ASTDT":null,"AENDT":null,"ASTDY":null,"AOCCFL":null,"TRTP":"Xanomeline High Dose","TRT01P":"Xanomeline High Dose","TRT01PN":null,"TRT01A":"Xanomeline High Dose","SITEGR1":900,"SITEID":701,"TRTSDT":"2014-07-01","TRTEDT":"2014-12-30","ITTFL":"Y","SAFFL":"Y","EFFFL":"N","COMPLFL":"Y","CMCLASX":"(uncoded - no WHO-DD therapeutic class in source)"},{"STUDYID":"CDISCPILOT01","USUBJID":"01-701-1034","CMSEQ":55,"CMTRT":"CALCIUM","CMINDC":"PROPHYLAXIS OR NON-THERAPEUTIC USE","CMDOSE":1,"CMDOSU":"TABLET","CMROUTE":"ORAL","ASTDT":null,"AENDT":null,"ASTDY":null,"AOCCFL":null,"TRTP":"Xanomeline High Dose","TRT01P":"Xanomeline High Dose","TRT01PN":null,"TRT01A":"Xanomeline High Dose","SITEGR1":900,"SITEID":701,"TRTSDT":"2014-07-01","TRTEDT":"2014-12-30","ITTFL":"Y","SAFFL":"Y","EFFFL":"N","COMPLFL":"Y","CMCLASX":"(uncoded - no WHO-DD therapeutic class in source)"},{"STUDYID":"CDISCPILOT01","USUBJID":"01-701-1034","CMSEQ":62,"CMTRT":"CALCIUM","CMINDC":"PROPHYLAXIS OR NON-THERAPEUTIC USE","CMDOSE":1,"CMDOSU":"TABLET","CMROUTE":"ORAL","ASTDT":null,"AENDT":null,"ASTDY":null,"AOCCFL":null,"TRTP":"Xanomeline High Dose","TRT01P":"Xanomeline High Dose","TRT01PN":null,"TRT01A":"Xanomeline High Dose","SITEGR1":900,"SITEID":701,"TRTSDT":"2014-07-01","TRTEDT":"2014-12-30","ITTFL":"Y","SAFFL":"Y","EFFFL":"N","COMPLFL":"Y","CMCLASX":"(uncoded - no WHO-DD therapeutic class in source)"},{"STUDYID":"CDISCPILOT01","USUBJID":"01-701-1034","CMSEQ":70,"CMTRT":"CALCIUM","CMINDC":"PROPHYLAXIS OR NON-THERAPEUTIC USE","CMDOSE":1,"CMDOSU":"TABLET","CMROUTE":"ORAL","ASTDT":null,"AENDT":null,"ASTDY":null,"AOCCFL":null,"TRTP":"Xanomeline High Dose","TRT01P":"Xanomeline High Dose","TRT01PN":null,"TRT01A":"Xanomeline High Dose","SITEGR1":900,"SITEID":701,"TRTSDT":"2014-07-01","TRTEDT":"2014-12-30","ITTFL":"Y","SAFFL":"Y","EFFFL":"N","COMPLFL":"Y","CMCLASX":"(uncoded - no WHO-DD therapeutic class in source)"},{"STUDYID":"CDISCPILOT01","USUBJID":"01-701-1034","CMSEQ":78,"CMTRT":"CALCIUM","CMINDC":"PROPHYLAXIS OR NON-THERAPEUTIC USE","CMDOSE":1,"CMDOSU":"TABLET","CMROUTE":"ORAL","ASTDT":null,"AENDT":null,"ASTDY":null,"AOCCFL":null,"TRTP":"Xanomeline High Dose","TRT01P":"Xanomeline High Dose","TRT01PN":null,"TRT01A":"Xanomeline High Dose","SITEGR1":900,"SITEID":701,"TRTSDT":"2014-07-01","TRTEDT":"2014-12-30","ITTFL":"Y","SAFFL":"Y","EFFFL":"N","COMPLFL":"Y","CMCLASX":"(uncoded - no WHO-DD therapeutic class in source)"},{"STUDYID":"CDISCPILOT01","USUBJID":"01-701-1034","CMSEQ":86,"CMTRT":"CALCIUM","CMINDC":"PROPHYLAXIS OR NON-THERAPEUTIC USE","CMDOSE":1,"CMDOSU":"TABLET","CMROUTE":"ORAL","ASTDT":null,"AENDT":null,"ASTDY":null,"AOCCFL":null,"TRTP":"Xanomeline High Dose","TRT01P":"Xanomeline High Dose","TRT01PN":null,"TRT01A":"Xanomeline High Dose","SITEGR1":900,"SITEID":701,"TRTSDT":"2014-07-01","TRTEDT":"2014-12-30","ITTFL":"Y","SAFFL":"Y","EFFFL":"N","COMPLFL":"Y","CMCLASX":"(uncoded - no WHO-DD therapeutic class in source)"},{"STUDYID":"CDISCPILOT01","USUBJID":"01-701-1034","CMSEQ":94,"CMTRT":"CALCIUM","CMINDC":"PROPHYLAXIS OR NON-THERAPEUTIC USE","CMDOSE":1,"CMDOSU":"TABLET","CMROUTE":"ORAL","ASTDT":null,"AENDT":null,"ASTDY":null,"AOCCFL":null,"TRTP":"Xanomeline High Dose","TRT01P":"Xanomeline High Dose","TRT01PN":null,"TRT01A":"Xanomeline High Dose","SITEGR1":900,"SITEID":701,"TRTSDT":"2014-07-01","TRTEDT":"2014-12-30","ITTFL":"Y","SAFFL":"Y","EFFFL":"N","COMPLFL":"Y","CMCLASX":"(uncoded - no WHO-DD therapeutic class in source)"},{"STUDYID":"CDISCPILOT01","USUBJID":"01-701-1034","CMSEQ":1,"CMTRT":"ESTROGEN NOS","CMINDC":"PROPHYLAXIS OR NON-THERAPEUTIC USE","CMDOSE":3,"CMDOSU":"mL","CMROUTE":"INTRAMUSCULAR","ASTDT":null,"AENDT":null,"ASTDY":null,"AOCCFL":"Y","TRTP":"Xanomeline High Dose","TRT01P":"Xanomeline High Dose","TRT01PN":null,"TRT01A":"Xanomeline High Dose","SITEGR1":900,"SITEID":701,"TRTSDT":"2014-07-01","TRTEDT":"2014-12-30","ITTFL":"Y","SAFFL":"Y","EFFFL":"N","COMPLFL":"Y","CMCLASX":"(uncoded - no WHO-DD therapeutic class in source)"},{"STUDYID":"CDISCPILOT01","USUBJID":"01-701-1034","CMSEQ":8,"CMTRT":"ESTROGEN NOS","CMINDC":"PROPHYLAXIS OR NON-THERAPEUTIC USE","CMDOSE":3,"CMDOSU":"mL","CMROUTE":"INTRAMUSCULAR","ASTDT":null,"AENDT":null,"ASTDY":null,"AOCCFL":null,"TRTP":"Xanomeline High Dose","TRT01P":"Xanomeline High Dose","TRT01PN":null,"TRT01A":"Xanomeline High Dose","SITEGR1":900,"SITEID":701,"TRTSDT":"2014-07-01","TRTEDT":"2014-12-30","ITTFL":"Y","SAFFL":"Y","EFFFL":"N","COMPLFL":"Y","CMCLASX":"(uncoded - no WHO-DD therapeutic class in source)"},{"STUDYID":"CDISCPILOT01","USUBJID":"01-701-1034","CMSEQ":15,"CMTRT":"ESTROGEN NOS","CMINDC":"PROPHYLAXIS OR NON-THERAPEUTIC USE","CMDOSE":3,"CMDOSU":"mL","CMROUTE":"INTRAMUSCULAR","ASTDT":null,"AENDT":null,"ASTDY":null,"AOCCFL":null,"TRTP":"Xanomeline High Dose","TRT01P":"Xanomeline High Dose","TRT01PN":null,"TRT01A":"Xanomeline High Dose","SITEGR1":900,"SITEID":701,"TRTSDT":"2014-07-01","TRTEDT":"2014-12-30","ITTFL":"Y","SAFFL":"Y","EFFFL":"N","COMPLFL":"Y","CMCLASX":"(uncoded - no WHO-DD therapeutic class in source)"},{"STUDYID":"CDISCPILOT01","USUBJID":"01-701-1034","CMSEQ":22,"CMTRT":"ESTROGEN NOS","CMINDC":"PROPHYLAXIS OR NON-THERAPEUTIC USE","CMDOSE":3,"CMDOSU":"mL","CMROUTE":"INTRAMUSCULAR","ASTDT":null,"AENDT":null,"ASTDY":null,"AOCCFL":null,"TRTP":"Xanomeline High Dose","TRT01P":"Xanomeline High Dose","TRT01PN":null,"TRT01A":"Xanomeline High Dose","SITEGR1":900,"SITEID":701,"TRTSDT":"2014-07-01","TRTEDT":"2014-12-30","ITTFL":"Y","SAFFL":"Y","EFFFL":"N","COMPLFL":"Y","CMCLASX":"(uncoded - no WHO-DD therapeutic class in source)"},{"STUDYID":"CDISCPILOT01","USUBJID":"01-701-1034","CMSEQ":29,"CMTRT":"ESTROGEN NOS","CMINDC":"PROPHYLAXIS OR NON-THERAPEUTIC USE","CMDOSE":3,"CMDOSU":"mL","CMROUTE":"INTRAMUSCULAR","ASTDT":null,"AENDT":null,"ASTDY":null,"AOCCFL":null,"TRTP":"Xanomeline High Dose","TRT01P":"Xanomeline High Dose","TRT01PN":null,"TRT01A":"Xanomeline High Dose","SITEGR1":900,"SITEID":701,"TRTSDT":"2014-07-01","TRTEDT":"2014-12-30","ITTFL":"Y","SAFFL":"Y","EFFFL":"N","COMPLFL":"Y","CMCLASX":"(uncoded - no WHO-DD therapeutic class in source)"},{"STUDYID":"CDISCPILOT01","USUBJID":"01-701-1034","CMSEQ":36,"CMTRT":"ESTROGEN NOS","CMINDC":"PROPHYLAXIS OR NON-THERAPEUTIC USE","CMDOSE":3,"CMDOSU":"mL","CMROUTE":"INTRAMUSCULAR","ASTDT":null,"AENDT":null,"ASTDY":null,"AOCCFL":null,"TRTP":"Xanomeline High Dose","TRT01P":"Xanomeline High Dose","TRT01PN":null,"TRT01A":"Xanomeline High Dose","SITEGR1":900,"SITEID":701,"TRTSDT":"2014-07-01","TRTEDT":"2014-12-30","ITTFL":"Y","SAFFL":"Y","EFFFL":"N","COMPLFL":"Y","CMCLASX":"(uncoded - no WHO-DD therapeutic class in source)"},{"STUDYID":"CDISCPILOT01","USUBJID":"01-701-1034","CMSEQ":43,"CMTRT":"ESTROGEN NOS","CMINDC":"PROPHYLAXIS OR NON-THERAPEUTIC USE","CMDOSE":3,"CMDOSU":"mL","CMROUTE":"INTRAMUSCULAR","ASTDT":null,"AENDT":null,"ASTDY":null,"AOCCFL":null,"TRTP":"Xanomeline High Dose","TRT01P":"Xanomeline High Dose","TRT01PN":null,"TRT01A":"Xanomeline High Dose","SITEGR1":900,"SITEID":701,"TRTSDT":"2014-07-01","TRTEDT":"2014-12-30","ITTFL":"Y","SAFFL":"Y","EFFFL":"N","COMPLFL":"Y","CMCLASX":"(uncoded - no WHO-DD therapeutic class in source)"},{"STUDYID":"CDISCPILOT01","USUBJID":"01-701-1034","CMSEQ":50,"CMTRT":"ESTROGEN NOS","CMINDC":"PROPHYLAXIS OR NON-THERAPEUTIC USE","CMDOSE":3,"CMDOSU":"mL","CMROUTE":"INTRAMUSCULAR","ASTDT":null,"AENDT":null,"ASTDY":null,"AOCCFL":null,"TRTP":"Xanomeline High Dose","TRT01P":"Xanomeline High Dose","TRT01PN":null,"TRT01A":"Xanomeline High Dose","SITEGR1":900,"SITEID":701,"TRTSDT":"2014-07-01","TRTEDT":"2014-12-30","ITTFL":"Y","SAFFL":"Y","EFFFL":"N","COMPLFL":"Y","CMCLASX":"(uncoded - no WHO-DD therapeutic class in source)"},{"STUDYID":"CDISCPILOT01","USUBJID":"01-701-1034","CMSEQ":57,"CMTRT":"ESTROGEN NOS","CMINDC":"PROPHYLAXIS OR NON-THERAPEUTIC USE","CMDOSE":3,"CMDOSU":"mL","CMROUTE":"INTRAMUSCULAR","ASTDT":null,"AENDT":null,"ASTDY":null,"AOCCFL":null,"TRTP":"Xanomeline High Dose","TRT01P":"Xanomeline High Dose","TRT01PN":null,"TRT01A":"Xanomeline High Dose","SITEGR1":900,"SITEID":701,"TRTSDT":"2014-07-01","TRTEDT":"2014-12-30","ITTFL":"Y","SAFFL":"Y","EFFFL":"N","COMPLFL":"Y","CMCLASX":"(uncoded - no WHO-DD therapeutic class in source)"},{"STUDYID":"CDISCPILOT01","USUBJID":"01-701-1034","CMSEQ":65,"CMTRT":"ESTROGEN NOS","CMINDC":"PROPHYLAXIS OR NON-THERAPEUTIC USE","CMDOSE":3,"CMDOSU":"mL","CMROUTE":"INTRAMUSCULAR","ASTDT":null,"AENDT":null,"ASTDY":null,"AOCCFL":null,"TRTP":"Xanomeline High Dose","TRT01P":"Xanomeline High Dose","TRT01PN":null,"TRT01A":"Xanomeline High Dose","SITEGR1":900,"SITEID":701,"TRTSDT":"2014-07-01","TRTEDT":"2014-12-30","ITTFL":"Y","SAFFL":"Y","EFFFL":"N","COMPLFL":"Y","CMCLASX":"(uncoded - no WHO-DD therapeutic class in source)"},{"STUDYID":"CDISCPILOT01","USUBJID":"01-701-1034","CMSEQ":73,"CMTRT":"ESTROGEN NOS","CMINDC":"PROPHYLAXIS OR NON-THERAPEUTIC USE","CMDOSE":3,"CMDOSU":"mL","CMROUTE":"INTRAMUSCULAR","ASTDT":null,"AENDT":null,"ASTDY":null,"AOCCFL":null,"TRTP":"Xanomeline High Dose","TRT01P":"Xanomeline High Dose","TRT01PN":null,"TRT01A":"Xanomeline High Dose","SITEGR1":900,"SITEID":701,"TRTSDT":"2014-07-01","TRTEDT":"2014-12-30","ITTFL":"Y","SAFFL":"Y","EFFFL":"N","COMPLFL":"Y","CMCLASX":"(uncoded - no WHO-DD therapeutic class in source)"},{"STUDYID":"CDISCPILOT01","USUBJID":"01-701-1034","CMSEQ":81,"CMTRT":"ESTROGEN NOS","CMINDC":"PROPHYLAXIS OR NON-THERAPEUTIC USE","CMDOSE":3,"CMDOSU":"mL","CMROUTE":"INTRAMUSCULAR","ASTDT":null,"AENDT":null,"ASTDY":null,"AOCCFL":null,"TRTP":"Xanomeline High Dose","TRT01P":"Xanomeline High Dose","TRT01PN":null,"TRT01A":"Xanomeline High Dose","SITEGR1":900,"SITEID":701,"TRTSDT":"2014-07-01","TRTEDT":"2014-12-30","ITTFL":"Y","SAFFL":"Y","EFFFL":"N","COMPLFL":"Y","CMCLASX":"(uncoded - no WHO-DD therapeutic class in source)"},{"STUDYID":"CDISCPILOT01","USUBJID":"01-701-1034","CMSEQ":89,"CMTRT":"ESTROGEN NOS","CMINDC":"PROPHYLAXIS OR NON-THERAPEUTIC USE","CMDOSE":3,"CMDOSU":"mL","CMROUTE":"INTRAMUSCULAR","ASTDT":null,"AENDT":null,"ASTDY":null,"AOCCFL":null,"TRTP":"Xanomeline High Dose","TRT01P":"Xanomeline High Dose","TRT01PN":null,"TRT01A":"Xanomeline High Dose","SITEGR1":900,"SITEID":701,"TRTSDT":"2014-07-01","TRTEDT":"2014-12-30","ITTFL":"Y","SAFFL":"Y","EFFFL":"N","COMPLFL":"Y","CMCLASX":"(uncoded - no WHO-DD therapeutic class in source)"},{"STUDYID":"CDISCPILOT01","USUBJID":"01-701-1034","CMSEQ":5,"CMTRT":"EX-LAX","CMINDC":"","CMDOSE":1,"CMDOSU":"TABLET","CMROUTE":"ORAL","ASTDT":null,"AENDT":null,"ASTDY":null,"AOCCFL":"Y","TRTP":"Xanomeline High Dose","TRT01P":"Xanomeline High Dose","TRT01PN":null,"TRT01A":"Xanomeline High Dose","SITEGR1":900,"SITEID":701,"TRTSDT":"2014-07-01","TRTEDT":"2014-12-30","ITTFL":"Y","SAFFL":"Y","EFFFL":"N","COMPLFL":"Y","CMCLASX":"(uncoded - no WHO-DD therapeutic class in source)"},{"STUDYID":"CDISCPILOT01","USUBJID":"01-701-1034","CMSEQ":12,"CMTRT":"EX-LAX","CMINDC":"","CMDOSE":1,"CMDOSU":"TABLET","CMROUTE":"ORAL","ASTDT":null,"AENDT":null,"ASTDY":null,"AOCCFL":null,"TRTP":"Xanomeline High Dose","TRT01P":"Xanomeline High Dose","TRT01PN":null,"TRT01A":"Xanomeline High Dose","SITEGR1":900,"SITEID":701,"TRTSDT":"2014-07-01","TRTEDT":"2014-12-30","ITTFL":"Y","SAFFL":"Y","EFFFL":"N","COMPLFL":"Y","CMCLASX":"(uncoded - no WHO-DD therapeutic class in source)"},{"STUDYID":"CDISCPILOT01","USUBJID":"01-701-1034","CMSEQ":19,"CMTRT":"EX-LAX","CMINDC":"","CMDOSE":1,"CMDOSU":"TABLET","CMROUTE":"ORAL","ASTDT":null,"AENDT":null,"ASTDY":null,"AOCCFL":null,"TRTP":"Xanomeline High Dose","TRT01P":"Xanomeline High Dose","TRT01PN":null,"TRT01A":"Xanomeline High Dose","SITEGR1":900,"SITEID":701,"TRTSDT":"2014-07-01","TRTEDT":"2014-12-30","ITTFL":"Y","SAFFL":"Y","EFFFL":"N","COMPLFL":"Y","CMCLASX":"(uncoded - no WHO-DD therapeutic class in source)"},{"STUDYID":"CDISCPILOT01","USUBJID":"01-701-1034","CMSEQ":26,"CMTRT":"EX-LAX","CMINDC":"","CMDOSE":1,"CMDOSU":"TABLET","CMROUTE":"ORAL","ASTDT":null,"AENDT":null,"ASTDY":null,"AOCCFL":null,"TRTP":"Xanomeline High Dose","TRT01P":"Xanomeline High Dose","TRT01PN":null,"TRT01A":"Xanomeline High Dose","SITEGR1":900,"SITEID":701,"TRTSDT":"2014-07-01","TRTEDT":"2014-12-30","ITTFL":"Y","SAFFL":"Y","EFFFL":"N","COMPLFL":"Y","CMCLASX":"(uncoded - no WHO-DD therapeutic class in source)"},{"STUDYID":"CDISCPILOT01","USUBJID":"01-701-1034","CMSEQ":33,"CMTRT":"EX-LAX","CMINDC":"","CMDOSE":1,"CMDOSU":"TABLET","CMROUTE":"ORAL","ASTDT":null,"AENDT":null,"ASTDY":null,"AOCCFL":null,"TRTP":"Xanomeline High Dose","TRT01P":"Xanomeline High Dose","TRT01PN":null,"TRT01A":"Xanomeline High Dose","SITEGR1":900,"SITEID":701,"TRTSDT":"2014-07-01","TRTEDT":"2014-12-30","ITTFL":"Y","SAFFL":"Y","EFFFL":"N","COMPLFL":"Y","CMCLASX":"(uncoded - no WHO-DD therapeutic class in source)"},{"STUDYID":"CDISCPILOT01","USUBJID":"01-701-1034","CMSEQ":40,"CMTRT":"EX-LAX","CMINDC":"","CMDOSE":1,"CMDOSU":"TABLET","CMROUTE":"ORAL","ASTDT":null,"AENDT":null,"ASTDY":null,"AOCCFL":null,"TRTP":"Xanomeline High Dose","TRT01P":"Xanomeline High Dose","TRT01PN":null,"TRT01A":"Xanomeline High Dose","SITEGR1":900,"SITEID":701,"TRTSDT":"2014-07-01","TRTEDT":"2014-12-30","ITTFL":"Y","SAFFL":"Y","EFFFL":"N","COMPLFL":"Y","CMCLASX":"(uncoded - no WHO-DD therapeutic class in source)"},{"STUDYID":"CDISCPILOT01","USUBJID":"01-701-1034","CMSEQ":47,"CMTRT":"EX-LAX","CMINDC":"","CMDOSE":1,"CMDOSU":"TABLET","CMROUTE":"ORAL","ASTDT":null,"AENDT":null,"ASTDY":null,"AOCCFL":null,"TRTP":"Xanomeline High Dose","TRT01P":"Xanomeline High Dose","TRT01PN":null,"TRT01A":"Xanomeline High Dose","SITEGR1":900,"SITEID":701,"TRTSDT":"2014-07-01","TRTEDT":"2014-12-30","ITTFL":"Y","SAFFL":"Y","EFFFL":"N","COMPLFL":"Y","CMCLASX":"(uncoded - no WHO-DD therapeutic class in source)"},{"STUDYID":"CDISCPILOT01","USUBJID":"01-701-1034","CMSEQ":54,"CMTRT":"EX-LAX","CMINDC":"","CMDOSE":1,"CMDOSU":"TABLET","CMROUTE":"ORAL","ASTDT":null,"AENDT":null,"ASTDY":null,"AOCCFL":null,"TRTP":"Xanomeline High Dose","TRT01P":"Xanomeline High Dose","TRT01PN":null,"TRT01A":"Xanomeline High Dose","SITEGR1":900,"SITEID":701,"TRTSDT":"2014-07-01","TRTEDT":"2014-12-30","ITTFL":"Y","SAFFL":"Y","EFFFL":"N","COMPLFL":"Y","CMCLASX":"(uncoded - no WHO-DD therapeutic class in source)"},{"STUDYID":"CDISCPILOT01","USUBJID":"01-701-1034","CMSEQ":61,"CMTRT":"EX-LAX","CMINDC":"","CMDOSE":1,"CMDOSU":"TABLET","CMROUTE":"ORAL","ASTDT":null,"AENDT":null,"ASTDY":null,"AOCCFL":null,"TRTP":"Xanomeline High Dose","TRT01P":"Xanomeline High Dose","TRT01PN":null,"TRT01A":"Xanomeline High Dose","SITEGR1":900,"SITEID":701,"TRTSDT":"2014-07-01","TRTEDT":"2014-12-30","ITTFL":"Y","SAFFL":"Y","EFFFL":"N","COMPLFL":"Y","CMCLASX":"(uncoded - no WHO-DD therapeutic class in source)"},{"STUDYID":"CDISCPILOT01","USUBJID":"01-701-1034","CMSEQ":69,"CMTRT":"EX-LAX","CMINDC":"","CMDOSE":1,"CMDOSU":"TABLET","CMROUTE":"ORAL","ASTDT":null,"AENDT":null,"ASTDY":null,"AOCCFL":null,"TRTP":"Xanomeline High Dose","TRT01P":"Xanomeline High Dose","TRT01PN":null,"TRT01A":"Xanomeline High Dose","SITEGR1":900,"SITEID":701,"TRTSDT":"2014-07-01","TRTEDT":"2014-12-30","ITTFL":"Y","SAFFL":"Y","EFFFL":"N","COMPLFL":"Y","CMCLASX":"(uncoded - no WHO-DD therapeutic class in source)"},{"STUDYID":"CDISCPILOT01","USUBJID":"01-701-1034","CMSEQ":77,"CMTRT":"EX-LAX","CMINDC":"","CMDOSE":1,"CMDOSU":"TABLET","CMROUTE":"ORAL","ASTDT":null,"AENDT":null,"ASTDY":null,"AOCCFL":null,"TRTP":"Xanomeline High Dose","TRT01P":"Xanomeline High Dose","TRT01PN":null,"TRT01A":"Xanomeline High Dose","SITEGR1":900,"SITEID":701,"TRTSDT":"2014-07-01","TRTEDT":"2014-12-30","ITTFL":"Y","SAFFL":"Y","EFFFL":"N","COMPLFL":"Y","CMCLASX":"(uncoded - no WHO-DD therapeutic class in source)"},{"STUDYID":"CDISCPILOT01","USUBJID":"01-701-1034","CMSEQ":85,"CMTRT":"EX-LAX","CMINDC":"","CMDOSE":1,"CMDOSU":"TABLET","CMROUTE":"ORAL","ASTDT":null,"AENDT":null,"ASTDY":null,"AOCCFL":null,"TRTP":"Xanomeline High Dose","TRT01P":"Xanomeline High Dose","TRT01PN":null,"TRT01A":"Xanomeline High Dose","SITEGR1":900,"SITEID":701,"TRTSDT":"2014-07-01","TRTEDT":"2014-12-30","ITTFL":"Y","SAFFL":"Y","EFFFL":"N","COMPLFL":"Y","CMCLASX":"(uncoded - no WHO-DD therapeutic class in source)"},{"STUDYID":"CDISCPILOT01","USUBJID":"01-701-1034","CMSEQ":93,"CMTRT":"EX-LAX","CMINDC":"","CMDOSE":1,"CMDOSU":"TABLET","CMROUTE":"ORAL","ASTDT":null,"AENDT":null,"ASTDY":null,"AOCCFL":null,"TRTP":"Xanomeline High Dose","TRT01P":"Xanomeline High Dose","TRT01PN":null,"TRT01A":"Xanomeline High Dose","SITEGR1":900,"SITEID":701,"TRTSDT":"2014-07-01","TRTEDT":"2014-12-30","ITTFL":"Y","SAFFL":"Y","EFFFL":"N","COMPLFL":"Y","CMCLASX":"(uncoded - no WHO-DD therapeutic class in source)"},{"STUDYID":"CDISCPILOT01","USUBJID":"01-701-1034","CMSEQ":64,"CMTRT":"HYDROCORTISONE","CMINDC":"","CMDOSE":1,"CMDOSU":"VIAL","CMROUTE":"TOPICAL","ASTDT":"2014-08-27","AENDT":null,"ASTDY":58,"AOCCFL":"Y","TRTP":"Xanomeline High Dose","TRT01P":"Xanomeline High Dose","TRT01PN":null,"TRT01A":"Xanomeline High Dose","SITEGR1":900,"SITEID":701,"TRTSDT":"2014-07-01","TRTEDT":"2014-12-30","ITTFL":"Y","SAFFL":"Y","EFFFL":"N","COMPLFL":"Y","CMCLASX":"(uncoded - no WHO-DD therapeutic class in source)"},{"STUDYID":"CDISCPILOT01","USUBJID":"01-701-1034","CMSEQ":72,"CMTRT":"HYDROCORTISONE","CMINDC":"","CMDOSE":1,"CMDOSU":"VIAL","CMROUTE":"TOPICAL","ASTDT":"2014-08-27","AENDT":null,"ASTDY":58,"AOCCFL":null,"TRTP":"Xanomeline High Dose","TRT01P":"Xanomeline High Dose","TRT01PN":null,"TRT01A":"Xanomeline High Dose","SITEGR1":900,"SITEID":701,"TRTSDT":"2014-07-01","TRTEDT":"2014-12-30","ITTFL":"Y","SAFFL":"Y","EFFFL":"N","COMPLFL":"Y","CMCLASX":"(uncoded - no WHO-DD therapeutic class in source)"},{"STUDYID":"CDISCPILOT01","USUBJID":"01-701-1034","CMSEQ":80,"CMTRT":"HYDROCORTISONE","CMINDC":"","CMDOSE":1,"CMDOSU":"VIAL","CMROUTE":"TOPICAL","ASTDT":"2014-08-27","AENDT":null,"ASTDY":58,"AOCCFL":null,"TRTP":"Xanomeline High Dose","TRT01P":"Xanomeline High Dose","TRT01PN":null,"TRT01A":"Xanomeline High Dose","SITEGR1":900,"SITEID":701,"TRTSDT":"2014-07-01","TRTEDT":"2014-12-30","ITTFL":"Y","SAFFL":"Y","EFFFL":"N","COMPLFL":"Y","CMCLASX":"(uncoded - no WHO-DD therapeutic class in source)"},{"STUDYID":"CDISCPILOT01","USUBJID":"01-701-1034","CMSEQ":88,"CMTRT":"HYDROCORTISONE","CMINDC":"","CMDOSE":1,"CMDOSU":"VIAL","CMROUTE":"TOPICAL","ASTDT":"2014-08-27","AENDT":null,"ASTDY":58,"AOCCFL":null,"TRTP":"Xanomeline High Dose","TRT01P":"Xanomeline High Dose","TRT01PN":null,"TRT01A":"Xanomeline High Dose","SITEGR1":900,"SITEID":701,"TRTSDT":"2014-07-01","TRTEDT":"2014-12-30","ITTFL":"Y","SAFFL":"Y","EFFFL":"N","COMPLFL":"Y","CMCLASX":"(uncoded - no WHO-DD therapeutic class in source)"},{"STUDYID":"CDISCPILOT01","USUBJID":"01-701-1034","CMSEQ":96,"CMTRT":"HYDROCORTISONE","CMINDC":"","CMDOSE":1,"CMDOSU":"VIAL","CMROUTE":"TOPICAL","ASTDT":"2014-08-27","AENDT":null,"ASTDY":58,"AOCCFL":null,"TRTP":"Xanomeline High Dose","TRT01P":"Xanomeline High Dose","TRT01PN":null,"TRT01A":"Xanomeline High Dose","SITEGR1":900,"SITEID":701,"TRTSDT":"2014-07-01","TRTEDT":"2014-12-30","ITTFL":"Y","SAFFL":"Y","EFFFL":"N","COMPLFL":"Y","CMCLASX":"(uncoded - no WHO-DD therapeutic class in source)"},{"STUDYID":"CDISCPILOT01","USUBJID":"01-701-1034","CMSEQ":7,"CMTRT":"IRON","CMINDC":"PROPHYLAXIS OR NON-THERAPEUTIC USE","CMDOSE":1,"CMDOSU":"TABLET","CMROUTE":"ORAL","ASTDT":null,"AENDT":null,"ASTDY":null,"AOCCFL":"Y","TRTP":"Xanomeline High Dose","TRT01P":"Xanomeline High Dose","TRT01PN":null,"TRT01A":"Xanomeline High Dose","SITEGR1":900,"SITEID":701,"TRTSDT":"2014-07-01","TRTEDT":"2014-12-30","ITTFL":"Y","SAFFL":"Y","EFFFL":"N","COMPLFL":"Y","CMCLASX":"(uncoded - no WHO-DD therapeutic class in source)"},{"STUDYID":"CDISCPILOT01","USUBJID":"01-701-1034","CMSEQ":14,"CMTRT":"IRON","CMINDC":"PROPHYLAXIS OR NON-THERAPEUTIC USE","CMDOSE":1,"CMDOSU":"TABLET","CMROUTE":"ORAL","ASTDT":null,"AENDT":null,"ASTDY":null,"AOCCFL":null,"TRTP":"Xanomeline High Dose","TRT01P":"Xanomeline High Dose","TRT01PN":null,"TRT01A":"Xanomeline High Dose","SITEGR1":900,"SITEID":701,"TRTSDT":"2014-07-01","TRTEDT":"2014-12-30","ITTFL":"Y","SAFFL":"Y","EFFFL":"N","COMPLFL":"Y","CMCLASX":"(uncoded - no WHO-DD therapeutic class in source)"},{"STUDYID":"CDISCPILOT01","USUBJID":"01-701-1034","CMSEQ":21,"CMTRT":"IRON","CMINDC":"PROPHYLAXIS OR NON-THERAPEUTIC USE","CMDOSE":1,"CMDOSU":"TABLET","CMROUTE":"ORAL","ASTDT":null,"AENDT":null,"ASTDY":null,"AOCCFL":null,"TRTP":"Xanomeline High Dose","TRT01P":"Xanomeline High Dose","TRT01PN":null,"TRT01A":"Xanomeline High Dose","SITEGR1":900,"SITEID":701,"TRTSDT":"2014-07-01","TRTEDT":"2014-12-30","ITTFL":"Y","SAFFL":"Y","EFFFL":"N","COMPLFL":"Y","CMCLASX":"(uncoded - no WHO-DD therapeutic class in source)"},{"STUDYID":"CDISCPILOT01","USUBJID":"01-701-1034","CMSEQ":28,"CMTRT":"IRON","CMINDC":"PROPHYLAXIS OR NON-THERAPEUTIC USE","CMDOSE":1,"CMDOSU":"TABLET","CMROUTE":"ORAL","ASTDT":null,"AENDT":null,"ASTDY":null,"AOCCFL":null,"TRTP":"Xanomeline High Dose","TRT01P":"Xanomeline High Dose","TRT01PN":null,"TRT01A":"Xanomeline High Dose","SITEGR1":900,"SITEID":701,"TRTSDT":"2014-07-01","TRTEDT":"2014-12-30","ITTFL":"Y","SAFFL":"Y","EFFFL":"N","COMPLFL":"Y","CMCLASX":"(uncoded - no WHO-DD therapeutic class in source)"},{"STUDYID":"CDISCPILOT01","USUBJID":"01-701-1034","CMSEQ":35,"CMTRT":"IRON","CMINDC":"PROPHYLAXIS OR NON-THERAPEUTIC USE","CMDOSE":1,"CMDOSU":"TABLET","CMROUTE":"ORAL","ASTDT":null,"AENDT":null,"ASTDY":null,"AOCCFL":null,"TRTP":"Xanomeline High Dose","TRT01P":"Xanomeline High Dose","TRT01PN":null,"TRT01A":"Xanomeline High Dose","SITEGR1":900,"SITEID":701,"TRTSDT":"2014-07-01","TRTEDT":"2014-12-30","ITTFL":"Y","SAFFL":"Y","EFFFL":"N","COMPLFL":"Y","CMCLASX":"(uncoded - no WHO-DD therapeutic class in source)"},{"STUDYID":"CDISCPILOT01","USUBJID":"01-701-1034","CMSEQ":42,"CMTRT":"IRON","CMINDC":"PROPHYLAXIS OR NON-THERAPEUTIC USE","CMDOSE":1,"CMDOSU":"TABLET","CMROUTE":"ORAL","ASTDT":null,"AENDT":null,"ASTDY":null,"AOCCFL":null,"TRTP":"Xanomeline High Dose","TRT01P":"Xanomeline High Dose","TRT01PN":null,"TRT01A":"Xanomeline High Dose","SITEGR1":900,"SITEID":701,"TRTSDT":"2014-07-01","TRTEDT":"2014-12-30","ITTFL":"Y","SAFFL":"Y","EFFFL":"N","COMPLFL":"Y","CMCLASX":"(uncoded - no WHO-DD therapeutic class in source)"},{"STUDYID":"CDISCPILOT01","USUBJID":"01-701-1034","CMSEQ":49,"CMTRT":"IRON","CMINDC":"PROPHYLAXIS OR NON-THERAPEUTIC USE","CMDOSE":1,"CMDOSU":"TABLET","CMROUTE":"ORAL","ASTDT":null,"AENDT":null,"ASTDY":null,"AOCCFL":null,"TRTP":"Xanomeline High Dose","TRT01P":"Xanomeline High Dose","TRT01PN":null,"TRT01A":"Xanomeline High Dose","SITEGR1":900,"SITEID":701,"TRTSDT":"2014-07-01","TRTEDT":"2014-12-30","ITTFL":"Y","SAFFL":"Y","EFFFL":"N","COMPLFL":"Y","CMCLASX":"(uncoded - no WHO-DD therapeutic class in source)"},{"STUDYID":"CDISCPILOT01","USUBJID":"01-701-1034","CMSEQ":56,"CMTRT":"IRON","CMINDC":"PROPHYLAXIS OR NON-THERAPEUTIC USE","CMDOSE":1,"CMDOSU":"TABLET","CMROUTE":"ORAL","ASTDT":null,"AENDT":null,"ASTDY":null,"AOCCFL":null,"TRTP":"Xanomeline High Dose","TRT01P":"Xanomeline High Dose","TRT01PN":null,"TRT01A":"Xanomeline High Dose","SITEGR1":900,"SITEID":701,"TRTSDT":"2014-07-01","TRTEDT":"2014-12-30","ITTFL":"Y","SAFFL":"Y","EFFFL":"N","COMPLFL":"Y","CMCLASX":"(uncoded - no WHO-DD therapeutic class in source)"},{"STUDYID":"CDISCPILOT01","USUBJID":"01-701-1034","CMSEQ":63,"CMTRT":"IRON","CMINDC":"PROPHYLAXIS OR NON-THERAPEUTIC USE","CMDOSE":1,"CMDOSU":"TABLET","CMROUTE":"ORAL","ASTDT":null,"AENDT":null,"ASTDY":null,"AOCCFL":null,"TRTP":"Xanomeline High Dose","TRT01P":"Xanomeline High Dose","TRT01PN":null,"TRT01A":"Xanomeline High Dose","SITEGR1":900,"SITEID":701,"TRTSDT":"2014-07-01","TRTEDT":"2014-12-30","ITTFL":"Y","SAFFL":"Y","EFFFL":"N","COMPLFL":"Y","CMCLASX":"(uncoded - no WHO-DD therapeutic class in source)"},{"STUDYID":"CDISCPILOT01","USUBJID":"01-701-1034","CMSEQ":71,"CMTRT":"IRON","CMINDC":"PROPHYLAXIS OR NON-THERAPEUTIC USE","CMDOSE":1,"CMDOSU":"TABLET","CMROUTE":"ORAL","ASTDT":null,"AENDT":null,"ASTDY":null,"AOCCFL":null,"TRTP":"Xanomeline High Dose","TRT01P":"Xanomeline High Dose","TRT01PN":null,"TRT01A":"Xanomeline High Dose","SITEGR1":900,"SITEID":701,"TRTSDT":"2014-07-01","TRTEDT":"2014-12-30","ITTFL":"Y","SAFFL":"Y","EFFFL":"N","COMPLFL":"Y","CMCLASX":"(uncoded - no WHO-DD therapeutic class in source)"},{"STUDYID":"CDISCPILOT01","USUBJID":"01-701-1034","CMSEQ":79,"CMTRT":"IRON","CMINDC":"PROPHYLAXIS OR NON-THERAPEUTIC USE","CMDOSE":1,"CMDOSU":"TABLET","CMROUTE":"ORAL","ASTDT":null,"AENDT":null,"ASTDY":null,"AOCCFL":null,"TRTP":"Xanomeline High Dose","TRT01P":"Xanomeline High Dose","TRT01PN":null,"TRT01A":"Xanomeline High Dose","SITEGR1":900,"SITEID":701,"TRTSDT":"2014-07-01","TRTEDT":"2014-12-30","ITTFL":"Y","SAFFL":"Y","EFFFL":"N","COMPLFL":"Y","CMCLASX":"(uncoded - no WHO-DD therapeutic class in source)"},{"STUDYID":"CDISCPILOT01","USUBJID":"01-701-1034","CMSEQ":87,"CMTRT":"IRON","CMINDC":"PROPHYLAXIS OR NON-THERAPEUTIC USE","CMDOSE":1,"CMDOSU":"TABLET","CMROUTE":"ORAL","ASTDT":null,"AENDT":null,"ASTDY":null,"AOCCFL":null,"TRTP":"Xanomeline High Dose","TRT01P":"Xanomeline High Dose","TRT01PN":null,"TRT01A":"Xanomeline High Dose","SITEGR1":900,"SITEID":701,"TRTSDT":"2014-07-01","TRTEDT":"2014-12-30","ITTFL":"Y","SAFFL":"Y","EFFFL":"N","COMPLFL":"Y","CMCLASX":"(uncoded - no WHO-DD therapeutic class in source)"},{"STUDYID":"CDISCPILOT01","USUBJID":"01-701-1034","CMSEQ":95,"CMTRT":"IRON","CMINDC":"PROPHYLAXIS OR NON-THERAPEUTIC USE","CMDOSE":1,"CMDOSU":"TABLET","CMROUTE":"ORAL","ASTDT":null,"AENDT":null,"ASTDY":null,"AOCCFL":null,"TRTP":"Xanomeline High Dose","TRT01P":"Xanomeline High Dose","TRT01PN":null,"TRT01A":"Xanomeline High Dose","SITEGR1":900,"SITEID":701,"TRTSDT":"2014-07-01","TRTEDT":"2014-12-30","ITTFL":"Y","SAFFL":"Y","EFFFL":"N","COMPLFL":"Y","CMCLASX":"(uncoded - no WHO-DD therapeutic class in source)"},{"STUDYID":"CDISCPILOT01","USUBJID":"01-701-1034","CMSEQ":2,"CMTRT":"LEVOTHROID","CMINDC":"","CMDOSE":0.15,"CMDOSU":"mg","CMROUTE":"ORAL","ASTDT":null,"AENDT":null,"ASTDY":null,"AOCCFL":"Y","TRTP":"Xanomeline High Dose","TRT01P":"Xanomeline High Dose","TRT01PN":null,"TRT01A":"Xanomeline High Dose","SITEGR1":900,"SITEID":701,"TRTSDT":"2014-07-01","TRTEDT":"2014-12-30","ITTFL":"Y","SAFFL":"Y","EFFFL":"N","COMPLFL":"Y","CMCLASX":"(uncoded - no WHO-DD therapeutic class in source)"},{"STUDYID":"CDISCPILOT01","USUBJID":"01-701-1034","CMSEQ":9,"CMTRT":"LEVOTHROID","CMINDC":"","CMDOSE":0.15,"CMDOSU":"mg","CMROUTE":"ORAL","ASTDT":null,"AENDT":null,"ASTDY":null,"AOCCFL":null,"TRTP":"Xanomeline High Dose","TRT01P":"Xanomeline High Dose","TRT01PN":null,"TRT01A":"Xanomeline High Dose","SITEGR1":900,"SITEID":701,"TRTSDT":"2014-07-01","TRTEDT":"2014-12-30","ITTFL":"Y","SAFFL":"Y","EFFFL":"N","COMPLFL":"Y","CMCLASX":"(uncoded - no WHO-DD therapeutic class in source)"},{"STUDYID":"CDISCPILOT01","USUBJID":"01-701-1034","CMSEQ":16,"CMTRT":"LEVOTHROID","CMINDC":"","CMDOSE":0.15,"CMDOSU":"mg","CMROUTE":"ORAL","ASTDT":null,"AENDT":null,"ASTDY":null,"AOCCFL":null,"TRTP":"Xanomeline High Dose","TRT01P":"Xanomeline High Dose","TRT01PN":null,"TRT01A":"Xanomeline High Dose","SITEGR1":900,"SITEID":701,"TRTSDT":"2014-07-01","TRTEDT":"2014-12-30","ITTFL":"Y","SAFFL":"Y","EFFFL":"N","COMPLFL":"Y","CMCLASX":"(uncoded - no WHO-DD therapeutic class in source)"},{"STUDYID":"CDISCPILOT01","USUBJID":"01-701-1034","CMSEQ":23,"CMTRT":"LEVOTHROID","CMINDC":"","CMDOSE":0.15,"CMDOSU":"mg","CMROUTE":"ORAL","ASTDT":null,"AENDT":null,"ASTDY":null,"AOCCFL":null,"TRTP":"Xanomeline High Dose","TRT01P":"Xanomeline High Dose","TRT01PN":null,"TRT01A":"Xanomeline High Dose","SITEGR1":900,"SITEID":701,"TRTSDT":"2014-07-01","TRTEDT":"2014-12-30","ITTFL":"Y","SAFFL":"Y","EFFFL":"N","COMPLFL":"Y","CMCLASX":"(uncoded - no WHO-DD therapeutic class in source)"},{"STUDYID":"CDISCPILOT01","USUBJID":"01-701-1034","CMSEQ":30,"CMTRT":"LEVOTHROID","CMINDC":"","CMDOSE":0.15,"CMDOSU":"mg","CMROUTE":"ORAL","ASTDT":null,"AENDT":null,"ASTDY":null,"AOCCFL":null,"TRTP":"Xanomeline High Dose","TRT01P":"Xanomeline High Dose","TRT01PN":null,"TRT01A":"Xanomeline High Dose","SITEGR1":900,"SITEID":701,"TRTSDT":"2014-07-01","TRTEDT":"2014-12-30","ITTFL":"Y","SAFFL":"Y","EFFFL":"N","COMPLFL":"Y","CMCLASX":"(uncoded - no WHO-DD therapeutic class in source)"},{"STUDYID":"CDISCPILOT01","USUBJID":"01-701-1034","CMSEQ":37,"CMTRT":"LEVOTHROID","CMINDC":"","CMDOSE":0.15,"CMDOSU":"mg","CMROUTE":"ORAL","ASTDT":null,"AENDT":null,"ASTDY":null,"AOCCFL":null,"TRTP":"Xanomeline High Dose","TRT01P":"Xanomeline High Dose","TRT01PN":null,"TRT01A":"Xanomeline High Dose","SITEGR1":900,"SITEID":701,"TRTSDT":"2014-07-01","TRTEDT":"2014-12-30","ITTFL":"Y","SAFFL":"Y","EFFFL":"N","COMPLFL":"Y","CMCLASX":"(uncoded - no WHO-DD therapeutic class in source)"},{"STUDYID":"CDISCPILOT01","USUBJID":"01-701-1034","CMSEQ":44,"CMTRT":"LEVOTHROID","CMINDC":"","CMDOSE":0.15,"CMDOSU":"mg","CMROUTE":"ORAL","ASTDT":null,"AENDT":null,"ASTDY":null,"AOCCFL":null,"TRTP":"Xanomeline High Dose","TRT01P":"Xanomeline High Dose","TRT01PN":null,"TRT01A":"Xanomeline High Dose","SITEGR1":900,"SITEID":701,"TRTSDT":"2014-07-01","TRTEDT":"2014-12-30","ITTFL":"Y","SAFFL":"Y","EFFFL":"N","COMPLFL":"Y","CMCLASX":"(uncoded - no WHO-DD therapeutic class in source)"},{"STUDYID":"CDISCPILOT01","USUBJID":"01-701-1034","CMSEQ":51,"CMTRT":"LEVOTHROID","CMINDC":"","CMDOSE":0.15,"CMDOSU":"mg","CMROUTE":"ORAL","ASTDT":null,"AENDT":null,"ASTDY":null,"AOCCFL":null,"TRTP":"Xanomeline High Dose","TRT01P":"Xanomeline High Dose","TRT01PN":null,"TRT01A":"Xanomeline High Dose","SITEGR1":900,"SITEID":701,"TRTSDT":"2014-07-01","TRTEDT":"2014-12-30","ITTFL":"Y","SAFFL":"Y","EFFFL":"N","COMPLFL":"Y","CMCLASX":"(uncoded - no WHO-DD therapeutic class in source)"},{"STUDYID":"CDISCPILOT01","USUBJID":"01-701-1034","CMSEQ":58,"CMTRT":"LEVOTHROID","CMINDC":"","CMDOSE":0.15,"CMDOSU":"mg","CMROUTE":"ORAL","ASTDT":null,"AENDT":null,"ASTDY":null,"AOCCFL":null,"TRTP":"Xanomeline High Dose","TRT01P":"Xanomeline High Dose","TRT01PN":null,"TRT01A":"Xanomeline High Dose","SITEGR1":900,"SITEID":701,"TRTSDT":"2014-07-01","TRTEDT":"2014-12-30","ITTFL":"Y","SAFFL":"Y","EFFFL":"N","COMPLFL":"Y","CMCLASX":"(uncoded - no WHO-DD therapeutic class in source)"},{"STUDYID":"CDISCPILOT01","USUBJID":"01-701-1034","CMSEQ":66,"CMTRT":"LEVOTHROID","CMINDC":"","CMDOSE":0.15,"CMDOSU":"mg","CMROUTE":"ORAL","ASTDT":null,"AENDT":null,"ASTDY":null,"AOCCFL":null,"TRTP":"Xanomeline High Dose","TRT01P":"Xanomeline High Dose","TRT01PN":null,"TRT01A":"Xanomeline High Dose","SITEGR1":900,"SITEID":701,"TRTSDT":"2014-07-01","TRTEDT":"2014-12-30","ITTFL":"Y","SAFFL":"Y","EFFFL":"N","COMPLFL":"Y","CMCLASX":"(uncoded - no WHO-DD therapeutic class in source)"},{"STUDYID":"CDISCPILOT01","USUBJID":"01-701-1034","CMSEQ":74,"CMTRT":"LEVOTHROID","CMINDC":"","CMDOSE":0.15,"CMDOSU":"mg","CMROUTE":"ORAL","ASTDT":null,"AENDT":null,"ASTDY":null,"AOCCFL":null,"TRTP":"Xanomeline High Dose","TRT01P":"Xanomeline High Dose","TRT01PN":null,"TRT01A":"Xanomeline High Dose","SITEGR1":900,"SITEID":701,"TRTSDT":"2014-07-01","TRTEDT":"2014-12-30","ITTFL":"Y","SAFFL":"Y","EFFFL":"N","COMPLFL":"Y","CMCLASX":"(uncoded - no WHO-DD therapeutic class in source)"},{"STUDYID":"CDISCPILOT01","USUBJID":"01-701-1034","CMSEQ":82,"CMTRT":"LEVOTHROID","CMINDC":"","CMDOSE":0.15,"CMDOSU":"mg","CMROUTE":"ORAL","ASTDT":null,"AENDT":null,"ASTDY":null,"AOCCFL":null,"TRTP":"Xanomeline High Dose","TRT01P":"Xanomeline High Dose","TRT01PN":null,"TRT01A":"Xanomeline High Dose","SITEGR1":900,"SITEID":701,"TRTSDT":"2014-07-01","TRTEDT":"2014-12-30","ITTFL":"Y","SAFFL":"Y","EFFFL":"N","COMPLFL":"Y","CMCLASX":"(uncoded - no WHO-DD therapeutic class in source)"},{"STUDYID":"CDISCPILOT01","USUBJID":"01-701-1034","CMSEQ":90,"CMTRT":"LEVOTHROID","CMINDC":"","CMDOSE":0.15,"CMDOSU":"mg","CMROUTE":"ORAL","ASTDT":null,"AENDT":null,"ASTDY":null,"AOCCFL":null,"TRTP":"Xanomeline High Dose","TRT01P":"Xanomeline High Dose","TRT01PN":null,"TRT01A":"Xanomeline High Dose","SITEGR1":900,"SITEID":701,"TRTSDT":"2014-07-01","TRTEDT":"2014-12-30","ITTFL":"Y","SAFFL":"Y","EFFFL":"N","COMPLFL":"Y","CMCLASX":"(uncoded - no WHO-DD therapeutic class in source)"},{"STUDYID":"CDISCPILOT01","USUBJID":"01-701-1034","CMSEQ":3,"CMTRT":"VITAMIN C","CMINDC":"PROPHYLAXIS OR NON-THERAPEUTIC USE","CMDOSE":1,"CMDOSU":"TABLET","CMROUTE":"ORAL","ASTDT":null,"AENDT":null,"ASTDY":null,"AOCCFL":"Y","TRTP":"Xanomeline High Dose","TRT01P":"Xanomeline High Dose","TRT01PN":null,"TRT01A":"Xanomeline High Dose","SITEGR1":900,"SITEID":701,"TRTSDT":"2014-07-01","TRTEDT":"2014-12-30","ITTFL":"Y","SAFFL":"Y","EFFFL":"N","COMPLFL":"Y","CMCLASX":"(uncoded - no WHO-DD therapeutic class in source)"},{"STUDYID":"CDISCPILOT01","USUBJID":"01-701-1034","CMSEQ":10,"CMTRT":"VITAMIN C","CMINDC":"PROPHYLAXIS OR NON-THERAPEUTIC USE","CMDOSE":1,"CMDOSU":"TABLET","CMROUTE":"ORAL","ASTDT":null,"AENDT":null,"ASTDY":null,"AOCCFL":null,"TRTP":"Xanomeline High Dose","TRT01P":"Xanomeline High Dose","TRT01PN":null,"TRT01A":"Xanomeline High Dose","SITEGR1":900,"SITEID":701,"TRTSDT":"2014-07-01","TRTEDT":"2014-12-30","ITTFL":"Y","SAFFL":"Y","EFFFL":"N","COMPLFL":"Y","CMCLASX":"(uncoded - no WHO-DD therapeutic class in source)"},{"STUDYID":"CDISCPILOT01","USUBJID":"01-701-1034","CMSEQ":17,"CMTRT":"VITAMIN C","CMINDC":"PROPHYLAXIS OR NON-THERAPEUTIC USE","CMDOSE":1,"CMDOSU":"TABLET","CMROUTE":"ORAL","ASTDT":null,"AENDT":null,"ASTDY":null,"AOCCFL":null,"TRTP":"Xanomeline High Dose","TRT01P":"Xanomeline High Dose","TRT01PN":null,"TRT01A":"Xanomeline High Dose","SITEGR1":900,"SITEID":701,"TRTSDT":"2014-07-01","TRTEDT":"2014-12-30","ITTFL":"Y","SAFFL":"Y","EFFFL":"N","COMPLFL":"Y","CMCLASX":"(uncoded - no WHO-DD therapeutic class in source)"},{"STUDYID":"CDISCPILOT01","USUBJID":"01-701-1034","CMSEQ":24,"CMTRT":"VITAMIN C","CMINDC":"PROPHYLAXIS OR NON-THERAPEUTIC USE","CMDOSE":1,"CMDOSU":"TABLET","CMROUTE":"ORAL","ASTDT":null,"AENDT":null,"ASTDY":null,"AOCCFL":null,"TRTP":"Xanomeline High Dose","TRT01P":"Xanomeline High Dose","TRT01PN":null,"TRT01A":"Xanomeline High Dose","SITEGR1":900,"SITEID":701,"TRTSDT":"2014-07-01","TRTEDT":"2014-12-30","ITTFL":"Y","SAFFL":"Y","EFFFL":"N","COMPLFL":"Y","CMCLASX":"(uncoded - no WHO-DD therapeutic class in source)"},{"STUDYID":"CDISCPILOT01","USUBJID":"01-701-1034","CMSEQ":31,"CMTRT":"VITAMIN C","CMINDC":"PROPHYLAXIS OR NON-THERAPEUTIC USE","CMDOSE":1,"CMDOSU":"TABLET","CMROUTE":"ORAL","ASTDT":null,"AENDT":null,"ASTDY":null,"AOCCFL":null,"TRTP":"Xanomeline High Dose","TRT01P":"Xanomeline High Dose","TRT01PN":null,"TRT01A":"Xanomeline High Dose","SITEGR1":900,"SITEID":701,"TRTSDT":"2014-07-01","TRTEDT":"2014-12-30","ITTFL":"Y","SAFFL":"Y","EFFFL":"N","COMPLFL":"Y","CMCLASX":"(uncoded - no WHO-DD therapeutic class in source)"},{"STUDYID":"CDISCPILOT01","USUBJID":"01-701-1034","CMSEQ":38,"CMTRT":"VITAMIN C","CMINDC":"PROPHYLAXIS OR NON-THERAPEUTIC USE","CMDOSE":1,"CMDOSU":"TABLET","CMROUTE":"ORAL","ASTDT":null,"AENDT":null,"ASTDY":null,"AOCCFL":null,"TRTP":"Xanomeline High Dose","TRT01P":"Xanomeline High Dose","TRT01PN":null,"TRT01A":"Xanomeline High Dose","SITEGR1":900,"SITEID":701,"TRTSDT":"2014-07-01","TRTEDT":"2014-12-30","ITTFL":"Y","SAFFL":"Y","EFFFL":"N","COMPLFL":"Y","CMCLASX":"(uncoded - no WHO-DD therapeutic class in source)"},{"STUDYID":"CDISCPILOT01","USUBJID":"01-701-1034","CMSEQ":45,"CMTRT":"VITAMIN C","CMINDC":"PROPHYLAXIS OR NON-THERAPEUTIC USE","CMDOSE":1,"CMDOSU":"TABLET","CMROUTE":"ORAL","ASTDT":null,"AENDT":null,"ASTDY":null,"AOCCFL":null,"TRTP":"Xanomeline High Dose","TRT01P":"Xanomeline High Dose","TRT01PN":null,"TRT01A":"Xanomeline High Dose","SITEGR1":900,"SITEID":701,"TRTSDT":"2014-07-01","TRTEDT":"2014-12-30","ITTFL":"Y","SAFFL":"Y","EFFFL":"N","COMPLFL":"Y","CMCLASX":"(uncoded - no WHO-DD therapeutic class in source)"},{"STUDYID":"CDISCPILOT01","USUBJID":"01-701-1034","CMSEQ":52,"CMTRT":"VITAMIN C","CMINDC":"PROPHYLAXIS OR NON-THERAPEUTIC USE","CMDOSE":1,"CMDOSU":"TABLET","CMROUTE":"ORAL","ASTDT":null,"AENDT":null,"ASTDY":null,"AOCCFL":null,"TRTP":"Xanomeline High Dose","TRT01P":"Xanomeline High Dose","TRT01PN":null,"TRT01A":"Xanomeline High Dose","SITEGR1":900,"SITEID":701,"TRTSDT":"2014-07-01","TRTEDT":"2014-12-30","ITTFL":"Y","SAFFL":"Y","EFFFL":"N","COMPLFL":"Y","CMCLASX":"(uncoded - no WHO-DD therapeutic class in source)"},{"STUDYID":"CDISCPILOT01","USUBJID":"01-701-1034","CMSEQ":59,"CMTRT":"VITAMIN C","CMINDC":"PROPHYLAXIS OR NON-THERAPEUTIC USE","CMDOSE":1,"CMDOSU":"TABLET","CMROUTE":"ORAL","ASTDT":null,"AENDT":null,"ASTDY":null,"AOCCFL":null,"TRTP":"Xanomeline High Dose","TRT01P":"Xanomeline High Dose","TRT01PN":null,"TRT01A":"Xanomeline High Dose","SITEGR1":900,"SITEID":701,"TRTSDT":"2014-07-01","TRTEDT":"2014-12-30","ITTFL":"Y","SAFFL":"Y","EFFFL":"N","COMPLFL":"Y","CMCLASX":"(uncoded - no WHO-DD therapeutic class in source)"},{"STUDYID":"CDISCPILOT01","USUBJID":"01-701-1034","CMSEQ":67,"CMTRT":"VITAMIN C","CMINDC":"PROPHYLAXIS OR NON-THERAPEUTIC USE","CMDOSE":1,"CMDOSU":"TABLET","CMROUTE":"ORAL","ASTDT":null,"AENDT":null,"ASTDY":null,"AOCCFL":null,"TRTP":"Xanomeline High Dose","TRT01P":"Xanomeline High Dose","TRT01PN":null,"TRT01A":"Xanomeline High Dose","SITEGR1":900,"SITEID":701,"TRTSDT":"2014-07-01","TRTEDT":"2014-12-30","ITTFL":"Y","SAFFL":"Y","EFFFL":"N","COMPLFL":"Y","CMCLASX":"(uncoded - no WHO-DD therapeutic class in source)"},{"STUDYID":"CDISCPILOT01","USUBJID":"01-701-1034","CMSEQ":75,"CMTRT":"VITAMIN C","CMINDC":"PROPHYLAXIS OR NON-THERAPEUTIC USE","CMDOSE":1,"CMDOSU":"TABLET","CMROUTE":"ORAL","ASTDT":null,"AENDT":null,"ASTDY":null,"AOCCFL":null,"TRTP":"Xanomeline High Dose","TRT01P":"Xanomeline High Dose","TRT01PN":null,"TRT01A":"Xanomeline High Dose","SITEGR1":900,"SITEID":701,"TRTSDT":"2014-07-01","TRTEDT":"2014-12-30","ITTFL":"Y","SAFFL":"Y","EFFFL":"N","COMPLFL":"Y","CMCLASX":"(uncoded - no WHO-DD therapeutic class in source)"},{"STUDYID":"CDISCPILOT01","USUBJID":"01-701-1034","CMSEQ":83,"CMTRT":"VITAMIN C","CMINDC":"PROPHYLAXIS OR NON-THERAPEUTIC USE","CMDOSE":1,"CMDOSU":"TABLET","CMROUTE":"ORAL","ASTDT":null,"AENDT":null,"ASTDY":null,"AOCCFL":null,"TRTP":"Xanomeline High Dose","TRT01P":"Xanomeline High Dose","TRT01PN":null,"TRT01A":"Xanomeline High Dose","SITEGR1":900,"SITEID":701,"TRTSDT":"2014-07-01","TRTEDT":"2014-12-30","ITTFL":"Y","SAFFL":"Y","EFFFL":"N","COMPLFL":"Y","CMCLASX":"(uncoded - no WHO-DD therapeutic class in source)"},{"STUDYID":"CDISCPILOT01","USUBJID":"01-701-1034","CMSEQ":91,"CMTRT":"VITAMIN C","CMINDC":"PROPHYLAXIS OR NON-THERAPEUTIC USE","CMDOSE":1,"CMDOSU":"TABLET","CMROUTE":"ORAL","ASTDT":null,"AENDT":null,"ASTDY":null,"AOCCFL":null,"TRTP":"Xanomeline High Dose","TRT01P":"Xanomeline High Dose","TRT01PN":null,"TRT01A":"Xanomeline High Dose","SITEGR1":900,"SITEID":701,"TRTSDT":"2014-07-01","TRTEDT":"2014-12-30","ITTFL":"Y","SAFFL":"Y","EFFFL":"N","COMPLFL":"Y","CMCLASX":"(uncoded - no WHO-DD therapeutic class in source)"},{"STUDYID":"CDISCPILOT01","USUBJID":"01-701-1034","CMSEQ":4,"CMTRT":"VITAMIN E","CMINDC":"PROPHYLAXIS OR NON-THERAPEUTIC USE","CMDOSE":1,"CMDOSU":"TABLET","CMROUTE":"ORAL","ASTDT":null,"AENDT":null,"ASTDY":null,"AOCCFL":"Y","TRTP":"Xanomeline High Dose","TRT01P":"Xanomeline High Dose","TRT01PN":null,"TRT01A":"Xanomeline High Dose","SITEGR1":900,"SITEID":701,"TRTSDT":"2014-07-01","TRTEDT":"2014-12-30","ITTFL":"Y","SAFFL":"Y","EFFFL":"N","COMPLFL":"Y","CMCLASX":"(uncoded - no WHO-DD therapeutic class in source)"},{"STUDYID":"CDISCPILOT01","USUBJID":"01-701-1034","CMSEQ":11,"CMTRT":"VITAMIN E","CMINDC":"PROPHYLAXIS OR NON-THERAPEUTIC USE","CMDOSE":1,"CMDOSU":"TABLET","CMROUTE":"ORAL","ASTDT":null,"AENDT":null,"ASTDY":null,"AOCCFL":null,"TRTP":"Xanomeline High Dose","TRT01P":"Xanomeline High Dose","TRT01PN":null,"TRT01A":"Xanomeline High Dose","SITEGR1":900,"SITEID":701,"TRTSDT":"2014-07-01","TRTEDT":"2014-12-30","ITTFL":"Y","SAFFL":"Y","EFFFL":"N","COMPLFL":"Y","CMCLASX":"(uncoded - no WHO-DD therapeutic class in source)"},{"STUDYID":"CDISCPILOT01","USUBJID":"01-701-1034","CMSEQ":18,"CMTRT":"VITAMIN E","CMINDC":"PROPHYLAXIS OR NON-THERAPEUTIC USE","CMDOSE":1,"CMDOSU":"TABLET","CMROUTE":"ORAL","ASTDT":null,"AENDT":null,"ASTDY":null,"AOCCFL":null,"TRTP":"Xanomeline High Dose","TRT01P":"Xanomeline High Dose","TRT01PN":null,"TRT01A":"Xanomeline High Dose","SITEGR1":900,"SITEID":701,"TRTSDT":"2014-07-01","TRTEDT":"2014-12-30","ITTFL":"Y","SAFFL":"Y","EFFFL":"N","COMPLFL":"Y","CMCLASX":"(uncoded - no WHO-DD therapeutic class in source)"},{"STUDYID":"CDISCPILOT01","USUBJID":"01-701-1034","CMSEQ":25,"CMTRT":"VITAMIN E","CMINDC":"PROPHYLAXIS OR NON-THERAPEUTIC USE","CMDOSE":1,"CMDOSU":"TABLET","CMROUTE":"ORAL","ASTDT":null,"AENDT":null,"ASTDY":null,"AOCCFL":null,"TRTP":"Xanomeline High Dose","TRT01P":"Xanomeline High Dose","TRT01PN":null,"TRT01A":"Xanomeline High Dose","SITEGR1":900,"SITEID":701,"TRTSDT":"2014-07-01","TRTEDT":"2014-12-30","ITTFL":"Y","SAFFL":"Y","EFFFL":"N","COMPLFL":"Y","CMCLASX":"(uncoded - no WHO-DD therapeutic class in source)"},{"STUDYID":"CDISCPILOT01","USUBJID":"01-701-1034","CMSEQ":32,"CMTRT":"VITAMIN E","CMINDC":"PROPHYLAXIS OR NON-THERAPEUTIC USE","CMDOSE":1,"CMDOSU":"TABLET","CMROUTE":"ORAL","ASTDT":null,"AENDT":null,"ASTDY":null,"AOCCFL":null,"TRTP":"Xanomeline High Dose","TRT01P":"Xanomeline High Dose","TRT01PN":null,"TRT01A":"Xanomeline High Dose","SITEGR1":900,"SITEID":701,"TRTSDT":"2014-07-01","TRTEDT":"2014-12-30","ITTFL":"Y","SAFFL":"Y","EFFFL":"N","COMPLFL":"Y","CMCLASX":"(uncoded - no WHO-DD therapeutic class in source)"},{"STUDYID":"CDISCPILOT01","USUBJID":"01-701-1034","CMSEQ":39,"CMTRT":"VITAMIN E","CMINDC":"PROPHYLAXIS OR NON-THERAPEUTIC USE","CMDOSE":1,"CMDOSU":"TABLET","CMROUTE":"ORAL","ASTDT":null,"AENDT":null,"ASTDY":null,"AOCCFL":null,"TRTP":"Xanomeline High Dose","TRT01P":"Xanomeline High Dose","TRT01PN":null,"TRT01A":"Xanomeline High Dose","SITEGR1":900,"SITEID":701,"TRTSDT":"2014-07-01","TRTEDT":"2014-12-30","ITTFL":"Y","SAFFL":"Y","EFFFL":"N","COMPLFL":"Y","CMCLASX":"(uncoded - no WHO-DD therapeutic class in source)"},{"STUDYID":"CDISCPILOT01","USUBJID":"01-701-1034","CMSEQ":46,"CMTRT":"VITAMIN E","CMINDC":"PROPHYLAXIS OR NON-THERAPEUTIC USE","CMDOSE":1,"CMDOSU":"TABLET","CMROUTE":"ORAL","ASTDT":null,"AENDT":null,"ASTDY":null,"AOCCFL":null,"TRTP":"Xanomeline High Dose","TRT01P":"Xanomeline High Dose","TRT01PN":null,"TRT01A":"Xanomeline High Dose","SITEGR1":900,"SITEID":701,"TRTSDT":"2014-07-01","TRTEDT":"2014-12-30","ITTFL":"Y","SAFFL":"Y","EFFFL":"N","COMPLFL":"Y","CMCLASX":"(uncoded - no WHO-DD therapeutic class in source)"},{"STUDYID":"CDISCPILOT01","USUBJID":"01-701-1034","CMSEQ":53,"CMTRT":"VITAMIN E","CMINDC":"PROPHYLAXIS OR NON-THERAPEUTIC USE","CMDOSE":1,"CMDOSU":"TABLET","CMROUTE":"ORAL","ASTDT":null,"AENDT":null,"ASTDY":null,"AOCCFL":null,"TRTP":"Xanomeline High Dose","TRT01P":"Xanomeline High Dose","TRT01PN":null,"TRT01A":"Xanomeline High Dose","SITEGR1":900,"SITEID":701,"TRTSDT":"2014-07-01","TRTEDT":"2014-12-30","ITTFL":"Y","SAFFL":"Y","EFFFL":"N","COMPLFL":"Y","CMCLASX":"(uncoded - no WHO-DD therapeutic class in source)"},{"STUDYID":"CDISCPILOT01","USUBJID":"01-701-1034","CMSEQ":60,"CMTRT":"VITAMIN E","CMINDC":"PROPHYLAXIS OR NON-THERAPEUTIC USE","CMDOSE":1,"CMDOSU":"TABLET","CMROUTE":"ORAL","ASTDT":null,"AENDT":null,"ASTDY":null,"AOCCFL":null,"TRTP":"Xanomeline High Dose","TRT01P":"Xanomeline High Dose","TRT01PN":null,"TRT01A":"Xanomeline High Dose","SITEGR1":900,"SITEID":701,"TRTSDT":"2014-07-01","TRTEDT":"2014-12-30","ITTFL":"Y","SAFFL":"Y","EFFFL":"N","COMPLFL":"Y","CMCLASX":"(uncoded - no WHO-DD therapeutic class in source)"},{"STUDYID":"CDISCPILOT01","USUBJID":"01-701-1034","CMSEQ":68,"CMTRT":"VITAMIN E","CMINDC":"PROPHYLAXIS OR NON-THERAPEUTIC USE","CMDOSE":1,"CMDOSU":"TABLET","CMROUTE":"ORAL","ASTDT":null,"AENDT":null,"ASTDY":null,"AOCCFL":null,"TRTP":"Xanomeline High Dose","TRT01P":"Xanomeline High Dose","TRT01PN":null,"TRT01A":"Xanomeline High Dose","SITEGR1":900,"SITEID":701,"TRTSDT":"2014-07-01","TRTEDT":"2014-12-30","ITTFL":"Y","SAFFL":"Y","EFFFL":"N","COMPLFL":"Y","CMCLASX":"(uncoded - no WHO-DD therapeutic class in source)"},{"STUDYID":"CDISCPILOT01","USUBJID":"01-701-1034","CMSEQ":76,"CMTRT":"VITAMIN E","CMINDC":"PROPHYLAXIS OR NON-THERAPEUTIC USE","CMDOSE":1,"CMDOSU":"TABLET","CMROUTE":"ORAL","ASTDT":null,"AENDT":null,"ASTDY":null,"AOCCFL":null,"TRTP":"Xanomeline High Dose","TRT01P":"Xanomeline High Dose","TRT01PN":null,"TRT01A":"Xanomeline High Dose","SITEGR1":900,"SITEID":701,"TRTSDT":"2014-07-01","TRTEDT":"2014-12-30","ITTFL":"Y","SAFFL":"Y","EFFFL":"N","COMPLFL":"Y","CMCLASX":"(uncoded - no WHO-DD therapeutic class in source)"},{"STUDYID":"CDISCPILOT01","USUBJID":"01-701-1034","CMSEQ":84,"CMTRT":"VITAMIN E","CMINDC":"PROPHYLAXIS OR NON-THERAPEUTIC USE","CMDOSE":1,"CMDOSU":"TABLET","CMROUTE":"ORAL","ASTDT":null,"AENDT":null,"ASTDY":null,"AOCCFL":null,"TRTP":"Xanomeline High Dose","TRT01P":"Xanomeline High Dose","TRT01PN":null,"TRT01A":"Xanomeline High Dose","SITEGR1":900,"SITEID":701,"TRTSDT":"2014-07-01","TRTEDT":"2014-12-30","ITTFL":"Y","SAFFL":"Y","EFFFL":"N","COMPLFL":"Y","CMCLASX":"(uncoded - no WHO-DD therapeutic class in source)"},{"STUDYID":"CDISCPILOT01","USUBJID":"01-701-1034","CMSEQ":92,"CMTRT":"VITAMIN E","CMINDC":"PROPHYLAXIS OR NON-THERAPEUTIC USE","CMDOSE":1,"CMDOSU":"TABLET","CMROUTE":"ORAL","ASTDT":null,"AENDT":null,"ASTDY":null,"AOCCFL":null,"TRTP":"Xanomeline High Dose","TRT01P":"Xanomeline High Dose","TRT01PN":null,"TRT01A":"Xanomeline High Dose","SITEGR1":900,"SITEID":701,"TRTSDT":"2014-07-01","TRTEDT":"2014-12-30","ITTFL":"Y","SAFFL":"Y","EFFFL":"N","COMPLFL":"Y","CMCLASX":"(uncoded - no WHO-DD therapeutic class in source)"},{"STUDYID":"CDISCPILOT01","USUBJID":"01-701-1047","CMSEQ":2,"CMTRT":"ALEVE","CMINDC":"","CMDOSE":250,"CMDOSU":"TABLET","CMROUTE":"ORAL","ASTDT":null,"AENDT":null,"ASTDY":null,"AOCCFL":"Y","TRTP":"Placebo","TRT01P":"Placebo","TRT01PN":null,"TRT01A":"Placebo","SITEGR1":900,"SITEID":701,"TRTSDT":"2013-02-12","TRTEDT":"2013-03-09","ITTFL":"Y","SAFFL":"Y","EFFFL":"N","COMPLFL":"N","CMCLASX":"(uncoded - no WHO-DD therapeutic class in source)"},{"STUDYID":"CDISCPILOT01","USUBJID":"01-701-1047","CMSEQ":7,"CMTRT":"ALEVE","CMINDC":"","CMDOSE":250,"CMDOSU":"TABLET","CMROUTE":"ORAL","ASTDT":null,"AENDT":null,"ASTDY":null,"AOCCFL":null,"TRTP":"Placebo","TRT01P":"Placebo","TRT01PN":null,"TRT01A":"Placebo","SITEGR1":900,"SITEID":701,"TRTSDT":"2013-02-12","TRTEDT":"2013-03-09","ITTFL":"Y","SAFFL":"Y","EFFFL":"N","COMPLFL":"N","CMCLASX":"(uncoded - no WHO-DD therapeutic class in source)"},{"STUDYID":"CDISCPILOT01","USUBJID":"01-701-1047","CMSEQ":13,"CMTRT":"ALEVE","CMINDC":"","CMDOSE":250,"CMDOSU":"TABLET","CMROUTE":"ORAL","ASTDT":null,"AENDT":null,"ASTDY":null,"AOCCFL":null,"TRTP":"Placebo","TRT01P":"Placebo","TRT01PN":null,"TRT01A":"Placebo","SITEGR1":900,"SITEID":701,"TRTSDT":"2013-02-12","TRTEDT":"2013-03-09","ITTFL":"Y","SAFFL":"Y","EFFFL":"N","COMPLFL":"N","CMCLASX":"(uncoded - no WHO-DD therapeutic class in source)"},{"STUDYID":"CDISCPILOT01","USUBJID":"01-701-1047","CMSEQ":18,"CMTRT":"ALEVE","CMINDC":"","CMDOSE":250,"CMDOSU":"TABLET","CMROUTE":"ORAL","ASTDT":null,"AENDT":null,"ASTDY":null,"AOCCFL":null,"TRTP":"Placebo","TRT01P":"Placebo","TRT01PN":null,"TRT01A":"Placebo","SITEGR1":900,"SITEID":701,"TRTSDT":"2013-02-12","TRTEDT":"2013-03-09","ITTFL":"Y","SAFFL":"Y","EFFFL":"N","COMPLFL":"N","CMCLASX":"(uncoded - no WHO-DD therapeutic class in source)"},{"STUDYID":"CDISCPILOT01","USUBJID":"01-701-1047","CMSEQ":23,"CMTRT":"ALEVE","CMINDC":"","CMDOSE":250,"CMDOSU":"TABLET","CMROUTE":"ORAL","ASTDT":null,"AENDT":null,"ASTDY":null,"AOCCFL":null,"TRTP":"Placebo","TRT01P":"Placebo","TRT01PN":null,"TRT01A":"Placebo","SITEGR1":900,"SITEID":701,"TRTSDT":"2013-02-12","TRTEDT":"2013-03-09","ITTFL":"Y","SAFFL":"Y","EFFFL":"N","COMPLFL":"N","CMCLASX":"(uncoded - no WHO-DD therapeutic class in source)"},{"STUDYID":"CDISCPILOT01","USUBJID":"01-701-1047","CMSEQ":30,"CMTRT":"ALEVE","CMINDC":"","CMDOSE":250,"CMDOSU":"TABLET","CMROUTE":"ORAL","ASTDT":null,"AENDT":null,"ASTDY":null,"AOCCFL":null,"TRTP":"Placebo","TRT01P":"Placebo","TRT01PN":null,"TRT01A":"Placebo","SITEGR1":900,"SITEID":701,"TRTSDT":"2013-02-12","TRTEDT":"2013-03-09","ITTFL":"Y","SAFFL":"Y","EFFFL":"N","COMPLFL":"N","CMCLASX":"(uncoded - no WHO-DD therapeutic class in source)"},{"STUDYID":"CDISCPILOT01","USUBJID":"01-701-1047","CMSEQ":37,"CMTRT":"ALEVE","CMINDC":"","CMDOSE":250,"CMDOSU":"TABLET","CMROUTE":"ORAL","ASTDT":null,"AENDT":null,"ASTDY":null,"AOCCFL":null,"TRTP":"Placebo","TRT01P":"Placebo","TRT01PN":null,"TRT01A":"Placebo","SITEGR1":900,"SITEID":701,"TRTSDT":"2013-02-12","TRTEDT":"2013-03-09","ITTFL":"Y","SAFFL":"Y","EFFFL":"N","COMPLFL":"N","CMCLASX":"(uncoded - no WHO-DD therapeutic class in source)"},{"STUDYID":"CDISCPILOT01","USUBJID":"01-701-1047","CMSEQ":1,"CMTRT":"CENTRUM","CMINDC":"PROPHYLAXIS OR NON-THERAPEUTIC USE","CMDOSE":1,"CMDOSU":"TABLET","CMROUTE":"ORAL","ASTDT":null,"AENDT":null,"ASTDY":null,"AOCCFL":"Y","TRTP":"Placebo","TRT01P":"Placebo","TRT01PN":null,"TRT01A":"Placebo","SITEGR1":900,"SITEID":701,"TRTSDT":"2013-02-12","TRTEDT":"2013-03-09","ITTFL":"Y","SAFFL":"Y","EFFFL":"N","COMPLFL":"N","CMCLASX":"(uncoded - no WHO-DD therapeutic class in source)"},{"STUDYID":"CDISCPILOT01","USUBJID":"01-701-1047","CMSEQ":6,"CMTRT":"CENTRUM","CMINDC":"PROPHYLAXIS OR NON-THERAPEUTIC USE","CMDOSE":1,"CMDOSU":"TABLET","CMROUTE":"ORAL","ASTDT":null,"AENDT":null,"ASTDY":null,"AOCCFL":null,"TRTP":"Placebo","TRT01P":"Placebo","TRT01PN":null,"TRT01A":"Placebo","SITEGR1":900,"SITEID":701,"TRTSDT":"2013-02-12","TRTEDT":"2013-03-09","ITTFL":"Y","SAFFL":"Y","EFFFL":"N","COMPLFL":"N","CMCLASX":"(uncoded - no WHO-DD therapeutic class in source)"},{"STUDYID":"CDISCPILOT01","USUBJID":"01-701-1047","CMSEQ":12,"CMTRT":"CENTRUM","CMINDC":"PROPHYLAXIS OR NON-THERAPEUTIC USE","CMDOSE":1,"CMDOSU":"TABLET","CMROUTE":"ORAL","ASTDT":null,"AENDT":null,"ASTDY":null,"AOCCFL":null,"TRTP":"Placebo","TRT01P":"Placebo","TRT01PN":null,"TRT01A":"Placebo","SITEGR1":900,"SITEID":701,"TRTSDT":"2013-02-12","TRTEDT":"2013-03-09","ITTFL":"Y","SAFFL":"Y","EFFFL":"N","COMPLFL":"N","CMCLASX":"(uncoded - no WHO-DD therapeutic class in source)"},{"STUDYID":"CDISCPILOT01","USUBJID":"01-701-1047","CMSEQ":17,"CMTRT":"CENTRUM","CMINDC":"PROPHYLAXIS OR NON-THERAPEUTIC USE","CMDOSE":1,"CMDOSU":"TABLET","CMROUTE":"ORAL","ASTDT":null,"AENDT":null,"ASTDY":null,"AOCCFL":null,"TRTP":"Placebo","TRT01P":"Placebo","TRT01PN":null,"TRT01A":"Placebo","SITEGR1":900,"SITEID":701,"TRTSDT":"2013-02-12","TRTEDT":"2013-03-09","ITTFL":"Y","SAFFL":"Y","EFFFL":"N","COMPLFL":"N","CMCLASX":"(uncoded - no WHO-DD therapeutic class in source)"},{"STUDYID":"CDISCPILOT01","USUBJID":"01-701-1047","CMSEQ":22,"CMTRT":"CENTRUM","CMINDC":"PROPHYLAXIS OR NON-THERAPEUTIC USE","CMDOSE":1,"CMDOSU":"TABLET","CMROUTE":"ORAL","ASTDT":null,"AENDT":null,"ASTDY":null,"AOCCFL":null,"TRTP":"Placebo","TRT01P":"Placebo","TRT01PN":null,"TRT01A":"Placebo","SITEGR1":900,"SITEID":701,"TRTSDT":"2013-02-12","TRTEDT":"2013-03-09","ITTFL":"Y","SAFFL":"Y","EFFFL":"N","COMPLFL":"N","CMCLASX":"(uncoded - no WHO-DD therapeutic class in source)"},{"STUDYID":"CDISCPILOT01","USUBJID":"01-701-1047","CMSEQ":29,"CMTRT":"CENTRUM","CMINDC":"PROPHYLAXIS OR NON-THERAPEUTIC USE","CMDOSE":1,"CMDOSU":"TABLET","CMROUTE":"ORAL","ASTDT":null,"AENDT":null,"ASTDY":null,"AOCCFL":null,"TRTP":"Placebo","TRT01P":"Placebo","TRT01PN":null,"TRT01A":"Placebo","SITEGR1":900,"SITEID":701,"TRTSDT":"2013-02-12","TRTEDT":"2013-03-09","ITTFL":"Y","SAFFL":"Y","EFFFL":"N","COMPLFL":"N","CMCLASX":"(uncoded - no WHO-DD therapeutic class in source)"},{"STUDYID":"CDISCPILOT01","USUBJID":"01-701-1047","CMSEQ":36,"CMTRT":"CENTRUM","CMINDC":"PROPHYLAXIS OR NON-THERAPEUTIC USE","CMDOSE":1,"CMDOSU":"TABLET","CMROUTE":"ORAL","ASTDT":null,"AENDT":null,"ASTDY":null,"AOCCFL":null,"TRTP":"Placebo","TRT01P":"Placebo","TRT01PN":null,"TRT01A":"Placebo","SITEGR1":900,"SITEID":701,"TRTSDT":"2013-02-12","TRTEDT":"2013-03-09","ITTFL":"Y","SAFFL":"Y","EFFFL":"N","COMPLFL":"N","CMCLASX":"(uncoded - no WHO-DD therapeutic class in source)"},{"STUDYID":"CDISCPILOT01","USUBJID":"01-701-1047","CMSEQ":11,"CMTRT":"FELDENE","CMINDC":"","CMDOSE":10,"CMDOSU":"mg","CMROUTE":"ORAL","ASTDT":"2013-02-01","AENDT":"2013-02-01","ASTDY":-11,"AOCCFL":"Y","TRTP":"Placebo","TRT01P":"Placebo","TRT01PN":null,"TRT01A":"Placebo","SITEGR1":900,"SITEID":701,"TRTSDT":"2013-02-12","TRTEDT":"2013-03-09","ITTFL":"Y","SAFFL":"Y","EFFFL":"N","COMPLFL":"N","CMCLASX":"(uncoded - no WHO-DD therapeutic class in source)"},{"STUDYID":"CDISCPILOT01","USUBJID":"01-701-1047","CMSEQ":5,"CMTRT":"PAPAYA","CMINDC":"","CMDOSE":2,"CMDOSU":"TABLET","CMROUTE":"ORAL","ASTDT":null,"AENDT":null,"ASTDY":null,"AOCCFL":"Y","TRTP":"Placebo","TRT01P":"Placebo","TRT01PN":null,"TRT01A":"Placebo","SITEGR1":900,"SITEID":701,"TRTSDT":"2013-02-12","TRTEDT":"2013-03-09","ITTFL":"Y","SAFFL":"Y","EFFFL":"N","COMPLFL":"N","CMCLASX":"(uncoded - no WHO-DD therapeutic class in source)"},{"STUDYID":"CDISCPILOT01","USUBJID":"01-701-1047","CMSEQ":10,"CMTRT":"PAPAYA","CMINDC":"","CMDOSE":2,"CMDOSU":"TABLET","CMROUTE":"ORAL","ASTDT":null,"AENDT":null,"ASTDY":null,"AOCCFL":null,"TRTP":"Placebo","TRT01P":"Placebo","TRT01PN":null,"TRT01A":"Placebo","SITEGR1":900,"SITEID":701,"TRTSDT":"2013-02-12","TRTEDT":"2013-03-09","ITTFL":"Y","SAFFL":"Y","EFFFL":"N","COMPLFL":"N","CMCLASX":"(uncoded - no WHO-DD therapeutic class in source)"},{"STUDYID":"CDISCPILOT01","USUBJID":"01-701-1047","CMSEQ":16,"CMTRT":"PAPAYA","CMINDC":"","CMDOSE":2,"CMDOSU":"TABLET","CMROUTE":"ORAL","ASTDT":null,"AENDT":null,"ASTDY":null,"AOCCFL":null,"TRTP":"Placebo","TRT01P":"Placebo","TRT01PN":null,"TRT01A":"Placebo","SITEGR1":900,"SITEID":701,"TRTSDT":"2013-02-12","TRTEDT":"2013-03-09","ITTFL":"Y","SAFFL":"Y","EFFFL":"N","COMPLFL":"N","CMCLASX":"(uncoded - no WHO-DD therapeutic class in source)"},{"STUDYID":"CDISCPILOT01","USUBJID":"01-701-1047","CMSEQ":21,"CMTRT":"PAPAYA","CMINDC":"","CMDOSE":2,"CMDOSU":"TABLET","CMROUTE":"ORAL","ASTDT":null,"AENDT":null,"ASTDY":null,"AOCCFL":null,"TRTP":"Placebo","TRT01P":"Placebo","TRT01PN":null,"TRT01A":"Placebo","SITEGR1":900,"SITEID":701,"TRTSDT":"2013-02-12","TRTEDT":"2013-03-09","ITTFL":"Y","SAFFL":"Y","EFFFL":"N","COMPLFL":"N","CMCLASX":"(uncoded - no WHO-DD therapeutic class in source)"},{"STUDYID":"CDISCPILOT01","USUBJID":"01-701-1047","CMSEQ":26,"CMTRT":"PAPAYA","CMINDC":"","CMDOSE":2,"CMDOSU":"TABLET","CMROUTE":"ORAL","ASTDT":null,"AENDT":null,"ASTDY":null,"AOCCFL":null,"TRTP":"Placebo","TRT01P":"Placebo","TRT01PN":null,"TRT01A":"Placebo","SITEGR1":900,"SITEID":701,"TRTSDT":"2013-02-12","TRTEDT":"2013-03-09","ITTFL":"Y","SAFFL":"Y","EFFFL":"N","COMPLFL":"N","CMCLASX":"(uncoded - no WHO-DD therapeutic class in source)"},{"STUDYID":"CDISCPILOT01","USUBJID":"01-701-1047","CMSEQ":33,"CMTRT":"PAPAYA","CMINDC":"","CMDOSE":2,"CMDOSU":"TABLET","CMROUTE":"ORAL","ASTDT":null,"AENDT":null,"ASTDY":null,"AOCCFL":null,"TRTP":"Placebo","TRT01P":"Placebo","TRT01PN":null,"TRT01A":"Placebo","SITEGR1":900,"SITEID":701,"TRTSDT":"2013-02-12","TRTEDT":"2013-03-09","ITTFL":"Y","SAFFL":"Y","EFFFL":"N","COMPLFL":"N","CMCLASX":"(uncoded - no WHO-DD therapeutic class in source)"},{"STUDYID":"CDISCPILOT01","USUBJID":"01-701-1047","CMSEQ":40,"CMTRT":"PAPAYA","CMINDC":"","CMDOSE":2,"CMDOSU":"TABLET","CMROUTE":"ORAL","ASTDT":null,"AENDT":null,"ASTDY":null,"AOCCFL":null,"TRTP":"Placebo","TRT01P":"Placebo","TRT01PN":null,"TRT01A":"Placebo","SITEGR1":900,"SITEID":701,"TRTSDT":"2013-02-12","TRTEDT":"2013-03-09","ITTFL":"Y","SAFFL":"Y","EFFFL":"N","COMPLFL":"N","CMCLASX":"(uncoded - no WHO-DD therapeutic class in source)"},{"STUDYID":"CDISCPILOT01","USUBJID":"01-701-1047","CMSEQ":3,"CMTRT":"PSORCON","CMINDC":"","CMDOSE":0.5,"CMDOSU":"% (v/v)","CMROUTE":"TOPICAL","ASTDT":null,"AENDT":null,"ASTDY":null,"AOCCFL":"Y","TRTP":"Placebo","TRT01P":"Placebo","TRT01PN":null,"TRT01A":"Placebo","SITEGR1":900,"SITEID":701,"TRTSDT":"2013-02-12","TRTEDT":"2013-03-09","ITTFL":"Y","SAFFL":"Y","EFFFL":"N","COMPLFL":"N","CMCLASX":"(uncoded - no WHO-DD therapeutic class in source)"},{"STUDYID":"CDISCPILOT01","USUBJID":"01-701-1047","CMSEQ":8,"CMTRT":"PSORCON","CMINDC":"","CMDOSE":0.5,"CMDOSU":"% (v/v)","CMROUTE":"TOPICAL","ASTDT":null,"AENDT":null,"ASTDY":null,"AOCCFL":null,"TRTP":"Placebo","TRT01P":"Placebo","TRT01PN":null,"TRT01A":"Placebo","SITEGR1":900,"SITEID":701,"TRTSDT":"2013-02-12","TRTEDT":"2013-03-09","ITTFL":"Y","SAFFL":"Y","EFFFL":"N","COMPLFL":"N","CMCLASX":"(uncoded - no WHO-DD therapeutic class in source)"},{"STUDYID":"CDISCPILOT01","USUBJID":"01-701-1047","CMSEQ":14,"CMTRT":"PSORCON","CMINDC":"","CMDOSE":0.5,"CMDOSU":"% (v/v)","CMROUTE":"TOPICAL","ASTDT":null,"AENDT":null,"ASTDY":null,"AOCCFL":null,"TRTP":"Placebo","TRT01P":"Placebo","TRT01PN":null,"TRT01A":"Placebo","SITEGR1":900,"SITEID":701,"TRTSDT":"2013-02-12","TRTEDT":"2013-03-09","ITTFL":"Y","SAFFL":"Y","EFFFL":"N","COMPLFL":"N","CMCLASX":"(uncoded - no WHO-DD therapeutic class in source)"},{"STUDYID":"CDISCPILOT01","USUBJID":"01-701-1047","CMSEQ":19,"CMTRT":"PSORCON","CMINDC":"","CMDOSE":0.5,"CMDOSU":"% (v/v)","CMROUTE":"TOPICAL","ASTDT":null,"AENDT":null,"ASTDY":null,"AOCCFL":null,"TRTP":"Placebo","TRT01P":"Placebo","TRT01PN":null,"TRT01A":"Placebo","SITEGR1":900,"SITEID":701,"TRTSDT":"2013-02-12","TRTEDT":"2013-03-09","ITTFL":"Y","SAFFL":"Y","EFFFL":"N","COMPLFL":"N","CMCLASX":"(uncoded - no WHO-DD therapeutic class in source)"},{"STUDYID":"CDISCPILOT01","USUBJID":"01-701-1047","CMSEQ":24,"CMTRT":"PSORCON","CMINDC":"","CMDOSE":0.5,"CMDOSU":"% (v/v)","CMROUTE":"TOPICAL","ASTDT":null,"AENDT":null,"ASTDY":null,"AOCCFL":null,"TRTP":"Placebo","TRT01P":"Placebo","TRT01PN":null,"TRT01A":"Placebo","SITEGR1":900,"SITEID":701,"TRTSDT":"2013-02-12","TRTEDT":"2013-03-09","ITTFL":"Y","SAFFL":"Y","EFFFL":"N","COMPLFL":"N","CMCLASX":"(uncoded - no WHO-DD therapeutic class in source)"},{"STUDYID":"CDISCPILOT01","USUBJID":"01-701-1047","CMSEQ":31,"CMTRT":"PSORCON","CMINDC":"","CMDOSE":0.5,"CMDOSU":"% (v/v)","CMROUTE":"TOPICAL","ASTDT":null,"AENDT":null,"ASTDY":null,"AOCCFL":null,"TRTP":"Placebo","TRT01P":"Placebo","TRT01PN":null,"TRT01A":"Placebo","SITEGR1":900,"SITEID":701,"TRTSDT":"2013-02-12","TRTEDT":"2013-03-09","ITTFL":"Y","SAFFL":"Y","EFFFL":"N","COMPLFL":"N","CMCLASX":"(uncoded - no WHO-DD therapeutic class in source)"},{"STUDYID":"CDISCPILOT01","USUBJID":"01-701-1047","CMSEQ":38,"CMTRT":"PSORCON","CMINDC":"","CMDOSE":0.5,"CMDOSU":"% (v/v)","CMROUTE":"TOPICAL","ASTDT":null,"AENDT":null,"ASTDY":null,"AOCCFL":null,"TRTP":"Placebo","TRT01P":"Placebo","TRT01PN":null,"TRT01A":"Placebo","SITEGR1":900,"SITEID":701,"TRTSDT":"2013-02-12","TRTEDT":"2013-03-09","ITTFL":"Y","SAFFL":"Y","EFFFL":"N","COMPLFL":"N","CMCLASX":"(uncoded - no WHO-DD therapeutic class in source)"},{"STUDYID":"CDISCPILOT01","USUBJID":"01-701-1047","CMSEQ":27,"CMTRT":"ROBITUSSIN-DM","CMINDC":"","CMDOSE":2,"CMDOSU":"tsp","CMROUTE":"ORAL","ASTDT":"2013-03-07","AENDT":null,"ASTDY":24,"AOCCFL":"Y","TRTP":"Placebo","TRT01P":"Placebo","TRT01PN":null,"TRT01A":"Placebo","SITEGR1":900,"SITEID":701,"TRTSDT":"2013-02-12","TRTEDT":"2013-03-09","ITTFL":"Y","SAFFL":"Y","EFFFL":"N","COMPLFL":"N","CMCLASX":"(uncoded - no WHO-DD therapeutic class in source)"},{"STUDYID":"CDISCPILOT01","USUBJID":"01-701-1047","CMSEQ":34,"CMTRT":"ROBITUSSIN-DM","CMINDC":"","CMDOSE":2,"CMDOSU":"tsp","CMROUTE":"ORAL","ASTDT":"2013-03-07","AENDT":null,"ASTDY":24,"AOCCFL":null,"TRTP":"Placebo","TRT01P":"Placebo","TRT01PN":null,"TRT01A":"Placebo","SITEGR1":900,"SITEID":701,"TRTSDT":"2013-02-12","TRTEDT":"2013-03-09","ITTFL":"Y","SAFFL":"Y","EFFFL":"N","COMPLFL":"N","CMCLASX":"(uncoded - no WHO-DD therapeutic class in source)"},{"STUDYID":"CDISCPILOT01","USUBJID":"01-701-1047","CMSEQ":41,"CMTRT":"ROBITUSSIN-DM","CMINDC":"","CMDOSE":2,"CMDOSU":"tsp","CMROUTE":"ORAL","ASTDT":"2013-03-07","AENDT":null,"ASTDY":24,"AOCCFL":null,"TRTP":"Placebo","TRT01P":"Placebo","TRT01PN":null,"TRT01A":"Placebo","SITEGR1":900,"SITEID":701,"TRTSDT":"2013-02-12","TRTEDT":"2013-03-09","ITTFL":"Y","SAFFL":"Y","EFFFL":"N","COMPLFL":"N","CMCLASX":"(uncoded - no WHO-DD therapeutic class in source)"},{"STUDYID":"CDISCPILOT01","USUBJID":"01-701-1047","CMSEQ":28,"CMTRT":"SUDAFED","CMINDC":"","CMDOSE":2,"CMDOSU":"TABLET","CMROUTE":"ORAL","ASTDT":"2013-03-07","AENDT":null,"ASTDY":24,"AOCCFL":"Y","TRTP":"Placebo","TRT01P":"Placebo","TRT01PN":null,"TRT01A":"Placebo","SITEGR1":900,"SITEID":701,"TRTSDT":"2013-02-12","TRTEDT":"2013-03-09","ITTFL":"Y","SAFFL":"Y","EFFFL":"N","COMPLFL":"N","CMCLASX":"(uncoded - no WHO-DD therapeutic class in source)"},{"STUDYID":"CDISCPILOT01","USUBJID":"01-701-1047","CMSEQ":35,"CMTRT":"SUDAFED","CMINDC":"","CMDOSE":2,"CMDOSU":"TABLET","CMROUTE":"ORAL","ASTDT":"2013-03-07","AENDT":null,"ASTDY":24,"AOCCFL":null,"TRTP":"Placebo","TRT01P":"Placebo","TRT01PN":null,"TRT01A":"Placebo","SITEGR1":900,"SITEID":701,"TRTSDT":"2013-02-12","TRTEDT":"2013-03-09","ITTFL":"Y","SAFFL":"Y","EFFFL":"N","COMPLFL":"N","CMCLASX":"(uncoded - no WHO-DD therapeutic class in source)"},{"STUDYID":"CDISCPILOT01","USUBJID":"01-701-1047","CMSEQ":42,"CMTRT":"SUDAFED","CMINDC":"","CMDOSE":2,"CMDOSU":"TABLET","CMROUTE":"ORAL","ASTDT":"2013-03-07","AENDT":null,"ASTDY":24,"AOCCFL":null,"TRTP":"Placebo","TRT01P":"Placebo","TRT01PN":null,"TRT01A":"Placebo","SITEGR1":900,"SITEID":701,"TRTSDT":"2013-02-12","TRTEDT":"2013-03-09","ITTFL":"Y","SAFFL":"Y","EFFFL":"N","COMPLFL":"N","CMCLASX":"(uncoded - no WHO-DD therapeutic class in source)"},{"STUDYID":"CDISCPILOT01","USUBJID":"01-701-1047","CMSEQ":4,"CMTRT":"SYNTHROID","CMINDC":"","CMDOSE":0.15,"CMDOSU":"mg","CMROUTE":"ORAL","ASTDT":null,"AENDT":null,"ASTDY":null,"AOCCFL":"Y","TRTP":"Placebo","TRT01P":"Placebo","TRT01PN":null,"TRT01A":"Placebo","SITEGR1":900,"SITEID":701,"TRTSDT":"2013-02-12","TRTEDT":"2013-03-09","ITTFL":"Y","SAFFL":"Y","EFFFL":"N","COMPLFL":"N","CMCLASX":"(uncoded - no WHO-DD therapeutic class in source)"},{"STUDYID":"CDISCPILOT01","USUBJID":"01-701-1047","CMSEQ":9,"CMTRT":"SYNTHROID","CMINDC":"","CMDOSE":0.15,"CMDOSU":"mg","CMROUTE":"ORAL","ASTDT":null,"AENDT":null,"ASTDY":null,"AOCCFL":null,"TRTP":"Placebo","TRT01P":"Placebo","TRT01PN":null,"TRT01A":"Placebo","SITEGR1":900,"SITEID":701,"TRTSDT":"2013-02-12","TRTEDT":"2013-03-09","ITTFL":"Y","SAFFL":"Y","EFFFL":"N","COMPLFL":"N","CMCLASX":"(uncoded - no WHO-DD therapeutic class in source)"},{"STUDYID":"CDISCPILOT01","USUBJID":"01-701-1047","CMSEQ":15,"CMTRT":"SYNTHROID","CMINDC":"","CMDOSE":0.15,"CMDOSU":"mg","CMROUTE":"ORAL","ASTDT":null,"AENDT":null,"ASTDY":null,"AOCCFL":null,"TRTP":"Placebo","TRT01P":"Placebo","TRT01PN":null,"TRT01A":"Placebo","SITEGR1":900,"SITEID":701,"TRTSDT":"2013-02-12","TRTEDT":"2013-03-09","ITTFL":"Y","SAFFL":"Y","EFFFL":"N","COMPLFL":"N","CMCLASX":"(uncoded - no WHO-DD therapeutic class in source)"},{"STUDYID":"CDISCPILOT01","USUBJID":"01-701-1047","CMSEQ":20,"CMTRT":"SYNTHROID","CMINDC":"","CMDOSE":0.15,"CMDOSU":"mg","CMROUTE":"ORAL","ASTDT":null,"AENDT":null,"ASTDY":null,"AOCCFL":null,"TRTP":"Placebo","TRT01P":"Placebo","TRT01PN":null,"TRT01A":"Placebo","SITEGR1":900,"SITEID":701,"TRTSDT":"2013-02-12","TRTEDT":"2013-03-09","ITTFL":"Y","SAFFL":"Y","EFFFL":"N","COMPLFL":"N","CMCLASX":"(uncoded - no WHO-DD therapeutic class in source)"},{"STUDYID":"CDISCPILOT01","USUBJID":"01-701-1047","CMSEQ":25,"CMTRT":"SYNTHROID","CMINDC":"","CMDOSE":0.15,"CMDOSU":"mg","CMROUTE":"ORAL","ASTDT":null,"AENDT":null,"ASTDY":null,"AOCCFL":null,"TRTP":"Placebo","TRT01P":"Placebo","TRT01PN":null,"TRT01A":"Placebo","SITEGR1":900,"SITEID":701,"TRTSDT":"2013-02-12","TRTEDT":"2013-03-09","ITTFL":"Y","SAFFL":"Y","EFFFL":"N","COMPLFL":"N","CMCLASX":"(uncoded - no WHO-DD therapeutic class in source)"},{"STUDYID":"CDISCPILOT01","USUBJID":"01-701-1047","CMSEQ":32,"CMTRT":"SYNTHROID","CMINDC":"","CMDOSE":0.15,"CMDOSU":"mg","CMROUTE":"ORAL","ASTDT":null,"AENDT":null,"ASTDY":null,"AOCCFL":null,"TRTP":"Placebo","TRT01P":"Placebo","TRT01PN":null,"TRT01A":"Placebo","SITEGR1":900,"SITEID":701,"TRTSDT":"2013-02-12","TRTEDT":"2013-03-09","ITTFL":"Y","SAFFL":"Y","EFFFL":"N","COMPLFL":"N","CMCLASX":"(uncoded - no WHO-DD therapeutic class in source)"},{"STUDYID":"CDISCPILOT01","USUBJID":"01-701-1047","CMSEQ":39,"CMTRT":"SYNTHROID","CMINDC":"","CMDOSE":0.15,"CMDOSU":"mg","CMROUTE":"ORAL","ASTDT":null,"AENDT":null,"ASTDY":null,"AOCCFL":null,"TRTP":"Placebo","TRT01P":"Placebo","TRT01PN":null,"TRT01A":"Placebo","SITEGR1":900,"SITEID":701,"TRTSDT":"2013-02-12","TRTEDT":"2013-03-09","ITTFL":"Y","SAFFL":"Y","EFFFL":"N","COMPLFL":"N","CMCLASX":"(uncoded - no WHO-DD therapeutic class in source)"},{"STUDYID":"CDISCPILOT01","USUBJID":"01-701-1097","CMSEQ":1,"CMTRT":"CENTRUM","CMINDC":"PROPHYLAXIS OR NON-THERAPEUTIC USE","CMDOSE":1,"CMDOSU":"TABLET","CMROUTE":"ORAL","ASTDT":null,"AENDT":null,"ASTDY":null,"AOCCFL":"Y","TRTP":"Xanomeline Low Dose","TRT01P":"Xanomeline Low Dose","TRT01PN":null,"TRT01A":"Xanomeline Low Dose","SITEGR1":900,"SITEID":701,"TRTSDT":"2014-01-01","TRTEDT":"2014-07-09","ITTFL":"Y","SAFFL":"Y","EFFFL":"N","COMPLFL":"Y","CMCLASX":"(uncoded - no WHO-DD therapeutic class in source)"},{"STUDYID":"CDISCPILOT01","USUBJID":"01-701-1097","CMSEQ":2,"CMTRT":"CENTRUM","CMINDC":"PROPHYLAXIS OR NON-THERAPEUTIC USE","CMDOSE":1,"CMDOSU":"TABLET","CMROUTE":"ORAL","ASTDT":null,"AENDT":null,"ASTDY":null,"AOCCFL":null,"TRTP":"Xanomeline Low Dose","TRT01P":"Xanomeline Low Dose","TRT01PN":null,"TRT01A":"Xanomeline Low Dose","SITEGR1":900,"SITEID":701,"TRTSDT":"2014-01-01","TRTEDT":"2014-07-09","ITTFL":"Y","SAFFL":"Y","EFFFL":"N","COMPLFL":"Y","CMCLASX":"(uncoded - no WHO-DD therapeutic class in source)"},{"STUDYID":"CDISCPILOT01","USUBJID":"01-701-1097","CMSEQ":3,"CMTRT":"CENTRUM","CMINDC":"PROPHYLAXIS OR NON-THERAPEUTIC USE","CMDOSE":1,"CMDOSU":"TABLET","CMROUTE":"ORAL","ASTDT":null,"AENDT":null,"ASTDY":null,"AOCCFL":null,"TRTP":"Xanomeline Low Dose","TRT01P":"Xanomeline Low Dose","TRT01PN":null,"TRT01A":"Xanomeline Low Dose","SITEGR1":900,"SITEID":701,"TRTSDT":"2014-01-01","TRTEDT":"2014-07-09","ITTFL":"Y","SAFFL":"Y","EFFFL":"N","COMPLFL":"Y","CMCLASX":"(uncoded - no WHO-DD therapeutic class in source)"},{"STUDYID":"CDISCPILOT01","USUBJID":"01-701-1097","CMSEQ":4,"CMTRT":"CENTRUM","CMINDC":"PROPHYLAXIS OR NON-THERAPEUTIC USE","CMDOSE":1,"CMDOSU":"TABLET","CMROUTE":"ORAL","ASTDT":null,"AENDT":null,"ASTDY":null,"AOCCFL":null,"TRTP":"Xanomeline Low Dose","TRT01P":"Xanomeline Low Dose","TRT01PN":null,"TRT01A":"Xanomeline Low Dose","SITEGR1":900,"SITEID":701,"TRTSDT":"2014-01-01","TRTEDT":"2014-07-09","ITTFL":"Y","SAFFL":"Y","EFFFL":"N","COMPLFL":"Y","CMCLASX":"(uncoded - no WHO-DD therapeutic class in source)"},{"STUDYID":"CDISCPILOT01","USUBJID":"01-701-1097","CMSEQ":5,"CMTRT":"CENTRUM","CMINDC":"PROPHYLAXIS OR NON-THERAPEUTIC USE","CMDOSE":1,"CMDOSU":"TABLET","CMROUTE":"ORAL","ASTDT":null,"AENDT":null,"ASTDY":null,"AOCCFL":null,"TRTP":"Xanomeline Low Dose","TRT01P":"Xanomeline Low Dose","TRT01PN":null,"TRT01A":"Xanomeline Low Dose","SITEGR1":900,"SITEID":701,"TRTSDT":"2014-01-01","TRTEDT":"2014-07-09","ITTFL":"Y","SAFFL":"Y","EFFFL":"N","COMPLFL":"Y","CMCLASX":"(uncoded - no WHO-DD therapeutic class in source)"},{"STUDYID":"CDISCPILOT01","USUBJID":"01-701-1097","CMSEQ":6,"CMTRT":"CENTRUM","CMINDC":"PROPHYLAXIS OR NON-THERAPEUTIC USE","CMDOSE":1,"CMDOSU":"TABLET","CMROUTE":"ORAL","ASTDT":null,"AENDT":null,"ASTDY":null,"AOCCFL":null,"TRTP":"Xanomeline Low Dose","TRT01P":"Xanomeline Low Dose","TRT01PN":null,"TRT01A":"Xanomeline Low Dose","SITEGR1":900,"SITEID":701,"TRTSDT":"2014-01-01","TRTEDT":"2014-07-09","ITTFL":"Y","SAFFL":"Y","EFFFL":"N","COMPLFL":"Y","CMCLASX":"(uncoded - no WHO-DD therapeutic class in source)"},{"STUDYID":"CDISCPILOT01","USUBJID":"01-701-1097","CMSEQ":7,"CMTRT":"CENTRUM","CMINDC":"PROPHYLAXIS OR NON-THERAPEUTIC USE","CMDOSE":1,"CMDOSU":"TABLET","CMROUTE":"ORAL","ASTDT":null,"AENDT":null,"ASTDY":null,"AOCCFL":null,"TRTP":"Xanomeline Low Dose","TRT01P":"Xanomeline Low Dose","TRT01PN":null,"TRT01A":"Xanomeline Low Dose","SITEGR1":900,"SITEID":701,"TRTSDT":"2014-01-01","TRTEDT":"2014-07-09","ITTFL":"Y","SAFFL":"Y","EFFFL":"N","COMPLFL":"Y","CMCLASX":"(uncoded - no WHO-DD therapeutic class in source)"},{"STUDYID":"CDISCPILOT01","USUBJID":"01-701-1097","CMSEQ":8,"CMTRT":"CENTRUM","CMINDC":"PROPHYLAXIS OR NON-THERAPEUTIC USE","CMDOSE":1,"CMDOSU":"TABLET","CMROUTE":"ORAL","ASTDT":null,"AENDT":null,"ASTDY":null,"AOCCFL":null,"TRTP":"Xanomeline Low Dose","TRT01P":"Xanomeline Low Dose","TRT01PN":null,"TRT01A":"Xanomeline Low Dose","SITEGR1":900,"SITEID":701,"TRTSDT":"2014-01-01","TRTEDT":"2014-07-09","ITTFL":"Y","SAFFL":"Y","EFFFL":"N","COMPLFL":"Y","CMCLASX":"(uncoded - no WHO-DD therapeutic class in source)"},{"STUDYID":"CDISCPILOT01","USUBJID":"01-701-1097","CMSEQ":10,"CMTRT":"CENTRUM","CMINDC":"PROPHYLAXIS OR NON-THERAPEUTIC USE","CMDOSE":1,"CMDOSU":"TABLET","CMROUTE":"ORAL","ASTDT":null,"AENDT":null,"ASTDY":null,"AOCCFL":null,"TRTP":"Xanomeline Low Dose","TRT01P":"Xanomeline Low Dose","TRT01PN":null,"TRT01A":"Xanomeline Low Dose","SITEGR1":900,"SITEID":701,"TRTSDT":"2014-01-01","TRTEDT":"2014-07-09","ITTFL":"Y","SAFFL":"Y","EFFFL":"N","COMPLFL":"Y","CMCLASX":"(uncoded - no WHO-DD therapeutic class in source)"},{"STUDYID":"CDISCPILOT01","USUBJID":"01-701-1097","CMSEQ":12,"CMTRT":"CENTRUM","CMINDC":"PROPHYLAXIS OR NON-THERAPEUTIC USE","CMDOSE":1,"CMDOSU":"TABLET","CMROUTE":"ORAL","ASTDT":null,"AENDT":null,"ASTDY":null,"AOCCFL":null,"TRTP":"Xanomeline Low Dose","TRT01P":"Xanomeline Low Dose","TRT01PN":null,"TRT01A":"Xanomeline Low Dose","SITEGR1":900,"SITEID":701,"TRTSDT":"2014-01-01","TRTEDT":"2014-07-09","ITTFL":"Y","SAFFL":"Y","EFFFL":"N","COMPLFL":"Y","CMCLASX":"(uncoded - no WHO-DD therapeutic class in source)"},{"STUDYID":"CDISCPILOT01","USUBJID":"01-701-1097","CMSEQ":14,"CMTRT":"CENTRUM","CMINDC":"PROPHYLAXIS OR NON-THERAPEUTIC USE","CMDOSE":1,"CMDOSU":"TABLET","CMROUTE":"ORAL","ASTDT":null,"AENDT":null,"ASTDY":null,"AOCCFL":null,"TRTP":"Xanomeline Low Dose","TRT01P":"Xanomeline Low Dose","TRT01PN":null,"TRT01A":"Xanomeline Low Dose","SITEGR1":900,"SITEID":701,"TRTSDT":"2014-01-01","TRTEDT":"2014-07-09","ITTFL":"Y","SAFFL":"Y","EFFFL":"N","COMPLFL":"Y","CMCLASX":"(uncoded - no WHO-DD therapeutic class in source)"},{"STUDYID":"CDISCPILOT01","USUBJID":"01-701-1097","CMSEQ":15,"CMTRT":"CENTRUM","CMINDC":"PROPHYLAXIS OR NON-THERAPEUTIC USE","CMDOSE":1,"CMDOSU":"TABLET","CMROUTE":"ORAL","ASTDT":null,"AENDT":null,"ASTDY":null,"AOCCFL":null,"TRTP":"Xanomeline Low Dose","TRT01P":"Xanomeline Low Dose","TRT01PN":null,"TRT01A":"Xanomeline Low Dose","SITEGR1":900,"SITEID":701,"TRTSDT":"2014-01-01","TRTEDT":"2014-07-09","ITTFL":"Y","SAFFL":"Y","EFFFL":"N","COMPLFL":"Y","CMCLASX":"(uncoded - no WHO-DD therapeutic class in source)"},{"STUDYID":"CDISCPILOT01","USUBJID":"01-701-1097","CMSEQ":17,"CMTRT":"CENTRUM","CMINDC":"PROPHYLAXIS OR NON-THERAPEUTIC USE","CMDOSE":1,"CMDOSU":"TABLET","CMROUTE":"ORAL","ASTDT":null,"AENDT":null,"ASTDY":null,"AOCCFL":null,"TRTP":"Xanomeline Low Dose","TRT01P":"Xanomeline Low Dose","TRT01PN":null,"TRT01A":"Xanomeline Low Dose","SITEGR1":900,"SITEID":701,"TRTSDT":"2014-01-01","TRTEDT":"2014-07-09","ITTFL":"Y","SAFFL":"Y","EFFFL":"N","COMPLFL":"Y","CMCLASX":"(uncoded - no WHO-DD therapeutic class in source)"},{"STUDYID":"CDISCPILOT01","USUBJID":"01-701-1097","CMSEQ":9,"CMTRT":"HYDROCORTISONE","CMINDC":"","CMDOSE":1,"CMDOSU":"VIAL","CMROUTE":"TOPICAL","ASTDT":"2014-02-20","AENDT":"2014-02-25","ASTDY":51,"AOCCFL":"Y","TRTP":"Xanomeline Low Dose","TRT01P":"Xanomeline Low Dose","TRT01PN":null,"TRT01A":"Xanomeline Low Dose","SITEGR1":900,"SITEID":701,"TRTSDT":"2014-01-01","TRTEDT":"2014-07-09","ITTFL":"Y","SAFFL":"Y","EFFFL":"N","COMPLFL":"Y","CMCLASX":"(uncoded - no WHO-DD therapeutic class in source)"},{"STUDYID":"CDISCPILOT01","USUBJID":"01-701-1097","CMSEQ":11,"CMTRT":"HYDROCORTISONE","CMINDC":"","CMDOSE":1,"CMDOSU":"VIAL","CMROUTE":"TOPICAL","ASTDT":"2014-03-21","AENDT":"2014-03-23","ASTDY":80,"AOCCFL":null,"TRTP":"Xanomeline Low Dose","TRT01P":"Xanomeline Low Dose","TRT01PN":null,"TRT01A":"Xanomeline Low Dose","SITEGR1":900,"SITEID":701,"TRTSDT":"2014-01-01","TRTEDT":"2014-07-09","ITTFL":"Y","SAFFL":"Y","EFFFL":"N","COMPLFL":"Y","CMCLASX":"(uncoded - no WHO-DD therapeutic class in source)"},{"STUDYID":"CDISCPILOT01","USUBJID":"01-701-1097","CMSEQ":13,"CMTRT":"HYDROCORTISONE","CMINDC":"","CMDOSE":1,"CMDOSU":"VIAL","CMROUTE":"TOPICAL","ASTDT":"2014-04-18","AENDT":"2014-04-22","ASTDY":108,"AOCCFL":null,"TRTP":"Xanomeline Low Dose","TRT01P":"Xanomeline Low Dose","TRT01PN":null,"TRT01A":"Xanomeline Low Dose","SITEGR1":900,"SITEID":701,"TRTSDT":"2014-01-01","TRTEDT":"2014-07-09","ITTFL":"Y","SAFFL":"Y","EFFFL":"N","COMPLFL":"Y","CMCLASX":"(uncoded - no WHO-DD therapeutic class in source)"},{"STUDYID":"CDISCPILOT01","USUBJID":"01-701-1097","CMSEQ":16,"CMTRT":"HYDROCORTISONE","CMINDC":"","CMDOSE":1,"CMDOSU":"VIAL","CMROUTE":"TOPICAL","ASTDT":"2014-05-23","AENDT":null,"ASTDY":143,"AOCCFL":null,"TRTP":"Xanomeline Low Dose","TRT01P":"Xanomeline Low Dose","TRT01PN":null,"TRT01A":"Xanomeline Low Dose","SITEGR1":900,"SITEID":701,"TRTSDT":"2014-01-01","TRTEDT":"2014-07-09","ITTFL":"Y","SAFFL":"Y","EFFFL":"N","COMPLFL":"Y","CMCLASX":"(uncoded - no WHO-DD therapeutic class in source)"},{"STUDYID":"CDISCPILOT01","USUBJID":"01-701-1097","CMSEQ":18,"CMTRT":"HYDROCORTISONE","CMINDC":"","CMDOSE":1,"CMDOSU":"VIAL","CMROUTE":"TOPICAL","ASTDT":"2014-05-23","AENDT":null,"ASTDY":143,"AOCCFL":null,"TRTP":"Xanomeline Low Dose","TRT01P":"Xanomeline Low Dose","TRT01PN":null,"TRT01A":"Xanomeline Low Dose","SITEGR1":900,"SITEID":701,"TRTSDT":"2014-01-01","TRTEDT":"2014-07-09","ITTFL":"Y","SAFFL":"Y","EFFFL":"N","COMPLFL":"Y","CMCLASX":"(uncoded - no WHO-DD therapeutic class in source)"},{"STUDYID":"CDISCPILOT01","USUBJID":"01-701-1111","CMSEQ":13,"CMTRT":"HYDROCORTISONE, TOPICAL","CMINDC":"","CMDOSE":1,"CMDOSU":"VIAL","CMROUTE":"TOPICAL","ASTDT":"2012-09-02","AENDT":"2012-09-04","ASTDY":-5,"AOCCFL":"Y","TRTP":"Xanomeline Low Dose","TRT01P":"Xanomeline Low Dose","TRT01PN":null,"TRT01A":"Xanomeline Low Dose","SITEGR1":900,"SITEID":701,"TRTSDT":"2012-09-07","TRTEDT":"2012-09-16","ITTFL":"Y","SAFFL":"Y","EFFFL":"N","COMPLFL":"N","CMCLASX":"(uncoded - no WHO-DD therapeutic class in source)"},{"STUDYID":"CDISCPILOT01","USUBJID":"01-701-1111","CMSEQ":6,"CMTRT":"KEFLEX","CMINDC":"","CMDOSE":500,"CMDOSU":"mg","CMROUTE":"ORAL","ASTDT":"2012-07-08","AENDT":null,"ASTDY":-61,"AOCCFL":"Y","TRTP":"Xanomeline Low Dose","TRT01P":"Xanomeline Low Dose","TRT01PN":null,"TRT01A":"Xanomeline Low Dose","SITEGR1":900,"SITEID":701,"TRTSDT":"2012-09-07","TRTEDT":"2012-09-16","ITTFL":"Y","SAFFL":"Y","EFFFL":"N","COMPLFL":"N","CMCLASX":"(uncoded - no WHO-DD therapeutic class in source)"},{"STUDYID":"CDISCPILOT01","USUBJID":"01-701-1111","CMSEQ":12,"CMTRT":"KEFLEX","CMINDC":"","CMDOSE":500,"CMDOSU":"mg","CMROUTE":"ORAL","ASTDT":"2012-07-08","AENDT":null,"ASTDY":-61,"AOCCFL":null,"TRTP":"Xanomeline Low Dose","TRT01P":"Xanomeline Low Dose","TRT01PN":null,"TRT01A":"Xanomeline Low Dose","SITEGR1":900,"SITEID":701,"TRTSDT":"2012-09-07","TRTEDT":"2012-09-16","ITTFL":"Y","SAFFL":"Y","EFFFL":"N","COMPLFL":"N","CMCLASX":"(uncoded - no WHO-DD therapeutic class in source)"},{"STUDYID":"CDISCPILOT01","USUBJID":"01-701-1111","CMSEQ":19,"CMTRT":"KEFLEX","CMINDC":"","CMDOSE":500,"CMDOSU":"mg","CMROUTE":"ORAL","ASTDT":"2012-07-08","AENDT":null,"ASTDY":-61,"AOCCFL":null,"TRTP":"Xanomeline Low Dose","TRT01P":"Xanomeline Low Dose","TRT01PN":null,"TRT01A":"Xanomeline Low Dose","SITEGR1":900,"SITEID":701,"TRTSDT":"2012-09-07","TRTEDT":"2012-09-16","ITTFL":"Y","SAFFL":"Y","EFFFL":"N","COMPLFL":"N","CMCLASX":"(uncoded - no WHO-DD therapeutic class in source)"},{"STUDYID":"CDISCPILOT01","USUBJID":"01-701-1111","CMSEQ":25,"CMTRT":"KEFLEX","CMINDC":"","CMDOSE":500,"CMDOSU":"mg","CMROUTE":"ORAL","ASTDT":"2012-07-08","AENDT":null,"ASTDY":-61,"AOCCFL":null,"TRTP":"Xanomeline Low Dose","TRT01P":"Xanomeline Low Dose","TRT01PN":null,"TRT01A":"Xanomeline Low Dose","SITEGR1":900,"SITEID":701,"TRTSDT":"2012-09-07","TRTEDT":"2012-09-16","ITTFL":"Y","SAFFL":"Y","EFFFL":"N","COMPLFL":"N","CMCLASX":"(uncoded - no WHO-DD therapeutic class in source)"},{"STUDYID":"CDISCPILOT01","USUBJID":"01-701-1111","CMSEQ":31,"CMTRT":"KEFLEX","CMINDC":"","CMDOSE":500,"CMDOSU":"mg","CMROUTE":"ORAL","ASTDT":"2012-07-08","AENDT":null,"ASTDY":-61,"AOCCFL":null,"TRTP":"Xanomeline Low Dose","TRT01P":"Xanomeline Low Dose","TRT01PN":null,"TRT01A":"Xanomeline Low Dose","SITEGR1":900,"SITEID":701,"TRTSDT":"2012-09-07","TRTEDT":"2012-09-16","ITTFL":"Y","SAFFL":"Y","EFFFL":"N","COMPLFL":"N","CMCLASX":"(uncoded - no WHO-DD therapeutic class in source)"},{"STUDYID":"CDISCPILOT01","USUBJID":"01-701-1111","CMSEQ":37,"CMTRT":"KEFLEX","CMINDC":"","CMDOSE":500,"CMDOSU":"mg","CMROUTE":"ORAL","ASTDT":"2012-07-08","AENDT":null,"ASTDY":-61,"AOCCFL":null,"TRTP":"Xanomeline Low Dose","TRT01P":"Xanomeline Low Dose","TRT01PN":null,"TRT01A":"Xanomeline Low Dose","SITEGR1":900,"SITEID":701,"TRTSDT":"2012-09-07","TRTEDT":"2012-09-16","ITTFL":"Y","SAFFL":"Y","EFFFL":"N","COMPLFL":"N","CMCLASX":"(uncoded - no WHO-DD therapeutic class in source)"},{"STUDYID":"CDISCPILOT01","USUBJID":"01-701-1111","CMSEQ":4,"CMTRT":"LISINOPRIL","CMINDC":"","CMDOSE":2.5,"CMDOSU":"mg","CMROUTE":"ORAL","ASTDT":null,"AENDT":null,"ASTDY":null,"AOCCFL":"Y","TRTP":"Xanomeline Low Dose","TRT01P":"Xanomeline Low Dose","TRT01PN":null,"TRT01A":"Xanomeline Low Dose","SITEGR1":900,"SITEID":701,"TRTSDT":"2012-09-07","TRTEDT":"2012-09-16","ITTFL":"Y","SAFFL":"Y","EFFFL":"N","COMPLFL":"N","CMCLASX":"(uncoded - no WHO-DD therapeutic class in source)"},{"STUDYID":"CDISCPILOT01","USUBJID":"01-701-1111","CMSEQ":10,"CMTRT":"LISINOPRIL","CMINDC":"","CMDOSE":2.5,"CMDOSU":"mg","CMROUTE":"ORAL","ASTDT":null,"AENDT":null,"ASTDY":null,"AOCCFL":null,"TRTP":"Xanomeline Low Dose","TRT01P":"Xanomeline Low Dose","TRT01PN":null,"TRT01A":"Xanomeline Low Dose","SITEGR1":900,"SITEID":701,"TRTSDT":"2012-09-07","TRTEDT":"2012-09-16","ITTFL":"Y","SAFFL":"Y","EFFFL":"N","COMPLFL":"N","CMCLASX":"(uncoded - no WHO-DD therapeutic class in source)"},{"STUDYID":"CDISCPILOT01","USUBJID":"01-701-1111","CMSEQ":17,"CMTRT":"LISINOPRIL","CMINDC":"","CMDOSE":2.5,"CMDOSU":"mg","CMROUTE":"ORAL","ASTDT":null,"AENDT":null,"ASTDY":null,"AOCCFL":null,"TRTP":"Xanomeline Low Dose","TRT01P":"Xanomeline Low Dose","TRT01PN":null,"TRT01A":"Xanomeline Low Dose","SITEGR1":900,"SITEID":701,"TRTSDT":"2012-09-07","TRTEDT":"2012-09-16","ITTFL":"Y","SAFFL":"Y","EFFFL":"N","COMPLFL":"N","CMCLASX":"(uncoded - no WHO-DD therapeutic class in source)"},{"STUDYID":"CDISCPILOT01","USUBJID":"01-701-1111","CMSEQ":23,"CMTRT":"LISINOPRIL","CMINDC":"","CMDOSE":2.5,"CMDOSU":"mg","CMROUTE":"ORAL","ASTDT":null,"AENDT":null,"ASTDY":null,"AOCCFL":null,"TRTP":"Xanomeline Low Dose","TRT01P":"Xanomeline Low Dose","TRT01PN":null,"TRT01A":"Xanomeline Low Dose","SITEGR1":900,"SITEID":701,"TRTSDT":"2012-09-07","TRTEDT":"2012-09-16","ITTFL":"Y","SAFFL":"Y","EFFFL":"N","COMPLFL":"N","CMCLASX":"(uncoded - no WHO-DD therapeutic class in source)"},{"STUDYID":"CDISCPILOT01","USUBJID":"01-701-1111","CMSEQ":29,"CMTRT":"LISINOPRIL","CMINDC":"","CMDOSE":2.5,"CMDOSU":"mg","CMROUTE":"ORAL","ASTDT":null,"AENDT":null,"ASTDY":null,"AOCCFL":null,"TRTP":"Xanomeline Low Dose","TRT01P":"Xanomeline Low Dose","TRT01PN":null,"TRT01A":"Xanomeline Low Dose","SITEGR1":900,"SITEID":701,"TRTSDT":"2012-09-07","TRTEDT":"2012-09-16","ITTFL":"Y","SAFFL":"Y","EFFFL":"N","COMPLFL":"N","CMCLASX":"(uncoded - no WHO-DD therapeutic class in source)"},{"STUDYID":"CDISCPILOT01","USUBJID":"01-701-1111","CMSEQ":35,"CMTRT":"LISINOPRIL","CMINDC":"","CMDOSE":2.5,"CMDOSU":"mg","CMROUTE":"ORAL","ASTDT":null,"AENDT":null,"ASTDY":null,"AOCCFL":null,"TRTP":"Xanomeline Low Dose","TRT01P":"Xanomeline Low Dose","TRT01PN":null,"TRT01A":"Xanomeline Low Dose","SITEGR1":900,"SITEID":701,"TRTSDT":"2012-09-07","TRTEDT":"2012-09-16","ITTFL":"Y","SAFFL":"Y","EFFFL":"N","COMPLFL":"N","CMCLASX":"(uncoded - no WHO-DD therapeutic class in source)"},{"STUDYID":"CDISCPILOT01","USUBJID":"01-701-1111","CMSEQ":5,"CMTRT":"MOTRIN","CMINDC":"","CMDOSE":1,"CMDOSU":"TABLET","CMROUTE":"ORAL","ASTDT":null,"AENDT":null,"ASTDY":null,"AOCCFL":"Y","TRTP":"Xanomeline Low Dose","TRT01P":"Xanomeline Low Dose","TRT01PN":null,"TRT01A":"Xanomeline Low Dose","SITEGR1":900,"SITEID":701,"TRTSDT":"2012-09-07","TRTEDT":"2012-09-16","ITTFL":"Y","SAFFL":"Y","EFFFL":"N","COMPLFL":"N","CMCLASX":"(uncoded - no WHO-DD therapeutic class in source)"},{"STUDYID":"CDISCPILOT01","USUBJID":"01-701-1111","CMSEQ":11,"CMTRT":"MOTRIN","CMINDC":"","CMDOSE":1,"CMDOSU":"TABLET","CMROUTE":"ORAL","ASTDT":null,"AENDT":null,"ASTDY":null,"AOCCFL":null,"TRTP":"Xanomeline Low Dose","TRT01P":"Xanomeline Low Dose","TRT01PN":null,"TRT01A":"Xanomeline Low Dose","SITEGR1":900,"SITEID":701,"TRTSDT":"2012-09-07","TRTEDT":"2012-09-16","ITTFL":"Y","SAFFL":"Y","EFFFL":"N","COMPLFL":"N","CMCLASX":"(uncoded - no WHO-DD therapeutic class in source)"},{"STUDYID":"CDISCPILOT01","USUBJID":"01-701-1111","CMSEQ":18,"CMTRT":"MOTRIN","CMINDC":"","CMDOSE":1,"CMDOSU":"TABLET","CMROUTE":"ORAL","ASTDT":null,"AENDT":null,"ASTDY":null,"AOCCFL":null,"TRTP":"Xanomeline Low Dose","TRT01P":"Xanomeline Low Dose","TRT01PN":null,"TRT01A":"Xanomeline Low Dose","SITEGR1":900,"SITEID":701,"TRTSDT":"2012-09-07","TRTEDT":"2012-09-16","ITTFL":"Y","SAFFL":"Y","EFFFL":"N","COMPLFL":"N","CMCLASX":"(uncoded - no WHO-DD therapeutic class in source)"},{"STUDYID":"CDISCPILOT01","USUBJID":"01-701-1111","CMSEQ":24,"CMTRT":"MOTRIN","CMINDC":"","CMDOSE":1,"CMDOSU":"TABLET","CMROUTE":"ORAL","ASTDT":null,"AENDT":null,"ASTDY":null,"AOCCFL":null,"TRTP":"Xanomeline Low Dose","TRT01P":"Xanomeline Low Dose","TRT01PN":null,"TRT01A":"Xanomeline Low Dose","SITEGR1":900,"SITEID":701,"TRTSDT":"2012-09-07","TRTEDT":"2012-09-16","ITTFL":"Y","SAFFL":"Y","EFFFL":"N","COMPLFL":"N","CMCLASX":"(uncoded - no WHO-DD therapeutic class in source)"},{"STUDYID":"CDISCPILOT01","USUBJID":"01-701-1111","CMSEQ":30,"CMTRT":"MOTRIN","CMINDC":"","CMDOSE":1,"CMDOSU":"TABLET","CMROUTE":"ORAL","ASTDT":null,"AENDT":null,"ASTDY":null,"AOCCFL":null,"TRTP":"Xanomeline Low Dose","TRT01P":"Xanomeline Low Dose","TRT01PN":null,"TRT01A":"Xanomeline Low Dose","SITEGR1":900,"SITEID":701,"TRTSDT":"2012-09-07","TRTEDT":"2012-09-16","ITTFL":"Y","SAFFL":"Y","EFFFL":"N","COMPLFL":"N","CMCLASX":"(uncoded - no WHO-DD therapeutic class in source)"},{"STUDYID":"CDISCPILOT01","USUBJID":"01-701-1111","CMSEQ":36,"CMTRT":"MOTRIN","CMINDC":"","CMDOSE":1,"CMDOSU":"TABLET","CMROUTE":"ORAL","ASTDT":null,"AENDT":null,"ASTDY":null,"AOCCFL":null,"TRTP":"Xanomeline Low Dose","TRT01P":"Xanomeline Low Dose","TRT01PN":null,"TRT01A":"Xanomeline Low Dose","SITEGR1":900,"SITEID":701,"TRTSDT":"2012-09-07","TRTEDT":"2012-09-16","ITTFL":"Y","SAFFL":"Y","EFFFL":"N","COMPLFL":"N","CMCLASX":"(uncoded - no WHO-DD therapeutic class in source)"},{"STUDYID":"CDISCPILOT01","USUBJID":"01-701-1111","CMSEQ":2,"CMTRT":"PREMARIN","CMINDC":"","CMDOSE":0.625,"CMDOSU":"mg","CMROUTE":"ORAL","ASTDT":null,"AENDT":null,"ASTDY":null,"AOCCFL":"Y","TRTP":"Xanomeline Low Dose","TRT01P":"Xanomeline Low Dose","TRT01PN":null,"TRT01A":"Xanomeline Low Dose","SITEGR1":900,"SITEID":701,"TRTSDT":"2012-09-07","TRTEDT":"2012-09-16","ITTFL":"Y","SAFFL":"Y","EFFFL":"N","COMPLFL":"N","CMCLASX":"(uncoded - no WHO-DD therapeutic class in source)"},{"STUDYID":"CDISCPILOT01","USUBJID":"01-701-1111","CMSEQ":8,"CMTRT":"PREMARIN","CMINDC":"","CMDOSE":0.625,"CMDOSU":"mg","CMROUTE":"ORAL","ASTDT":null,"AENDT":null,"ASTDY":null,"AOCCFL":null,"TRTP":"Xanomeline Low Dose","TRT01P":"Xanomeline Low Dose","TRT01PN":null,"TRT01A":"Xanomeline Low Dose","SITEGR1":900,"SITEID":701,"TRTSDT":"2012-09-07","TRTEDT":"2012-09-16","ITTFL":"Y","SAFFL":"Y","EFFFL":"N","COMPLFL":"N","CMCLASX":"(uncoded - no WHO-DD therapeutic class in source)"},{"STUDYID":"CDISCPILOT01","USUBJID":"01-701-1111","CMSEQ":15,"CMTRT":"PREMARIN","CMINDC":"","CMDOSE":0.625,"CMDOSU":"mg","CMROUTE":"ORAL","ASTDT":null,"AENDT":null,"ASTDY":null,"AOCCFL":null,"TRTP":"Xanomeline Low Dose","TRT01P":"Xanomeline Low Dose","TRT01PN":null,"TRT01A":"Xanomeline Low Dose","SITEGR1":900,"SITEID":701,"TRTSDT":"2012-09-07","TRTEDT":"2012-09-16","ITTFL":"Y","SAFFL":"Y","EFFFL":"N","COMPLFL":"N","CMCLASX":"(uncoded - no WHO-DD therapeutic class in source)"},{"STUDYID":"CDISCPILOT01","USUBJID":"01-701-1111","CMSEQ":21,"CMTRT":"PREMARIN","CMINDC":"","CMDOSE":0.625,"CMDOSU":"mg","CMROUTE":"ORAL","ASTDT":null,"AENDT":null,"ASTDY":null,"AOCCFL":null,"TRTP":"Xanomeline Low Dose","TRT01P":"Xanomeline Low Dose","TRT01PN":null,"TRT01A":"Xanomeline Low Dose","SITEGR1":900,"SITEID":701,"TRTSDT":"2012-09-07","TRTEDT":"2012-09-16","ITTFL":"Y","SAFFL":"Y","EFFFL":"N","COMPLFL":"N","CMCLASX":"(uncoded - no WHO-DD therapeutic class in source)"},{"STUDYID":"CDISCPILOT01","USUBJID":"01-701-1111","CMSEQ":27,"CMTRT":"PREMARIN","CMINDC":"","CMDOSE":0.625,"CMDOSU":"mg","CMROUTE":"ORAL","ASTDT":null,"AENDT":null,"ASTDY":null,"AOCCFL":null,"TRTP":"Xanomeline Low Dose","TRT01P":"Xanomeline Low Dose","TRT01PN":null,"TRT01A":"Xanomeline Low Dose","SITEGR1":900,"SITEID":701,"TRTSDT":"2012-09-07","TRTEDT":"2012-09-16","ITTFL":"Y","SAFFL":"Y","EFFFL":"N","COMPLFL":"N","CMCLASX":"(uncoded - no WHO-DD therapeutic class in source)"},{"STUDYID":"CDISCPILOT01","USUBJID":"01-701-1111","CMSEQ":33,"CMTRT":"PREMARIN","CMINDC":"","CMDOSE":0.625,"CMDOSU":"mg","CMROUTE":"ORAL","ASTDT":null,"AENDT":null,"ASTDY":null,"AOCCFL":null,"TRTP":"Xanomeline Low Dose","TRT01P":"Xanomeline Low Dose","TRT01PN":null,"TRT01A":"Xanomeline Low Dose","SITEGR1":900,"SITEID":701,"TRTSDT":"2012-09-07","TRTEDT":"2012-09-16","ITTFL":"Y","SAFFL":"Y","EFFFL":"N","COMPLFL":"N","CMCLASX":"(uncoded - no WHO-DD therapeutic class in source)"},{"STUDYID":"CDISCPILOT01","USUBJID":"01-701-1111","CMSEQ":3,"CMTRT":"PROVERA","CMINDC":"","CMDOSE":2.5,"CMDOSU":"mg","CMROUTE":"ORAL","ASTDT":null,"AENDT":null,"ASTDY":null,"AOCCFL":"Y","TRTP":"Xanomeline Low Dose","TRT01P":"Xanomeline Low Dose","TRT01PN":null,"TRT01A":"Xanomeline Low Dose","SITEGR1":900,"SITEID":701,"TRTSDT":"2012-09-07","TRTEDT":"2012-09-16","ITTFL":"Y","SAFFL":"Y","EFFFL":"N","COMPLFL":"N","CMCLASX":"(uncoded - no WHO-DD therapeutic class in source)"},{"STUDYID":"CDISCPILOT01","USUBJID":"01-701-1111","CMSEQ":9,"CMTRT":"PROVERA","CMINDC":"","CMDOSE":2.5,"CMDOSU":"mg","CMROUTE":"ORAL","ASTDT":null,"AENDT":null,"ASTDY":null,"AOCCFL":null,"TRTP":"Xanomeline Low Dose","TRT01P":"Xanomeline Low Dose","TRT01PN":null,"TRT01A":"Xanomeline Low Dose","SITEGR1":900,"SITEID":701,"TRTSDT":"2012-09-07","TRTEDT":"2012-09-16","ITTFL":"Y","SAFFL":"Y","EFFFL":"N","COMPLFL":"N","CMCLASX":"(uncoded - no WHO-DD therapeutic class in source)"},{"STUDYID":"CDISCPILOT01","USUBJID":"01-701-1111","CMSEQ":16,"CMTRT":"PROVERA","CMINDC":"","CMDOSE":2.5,"CMDOSU":"mg","CMROUTE":"ORAL","ASTDT":null,"AENDT":null,"ASTDY":null,"AOCCFL":null,"TRTP":"Xanomeline Low Dose","TRT01P":"Xanomeline Low Dose","TRT01PN":null,"TRT01A":"Xanomeline Low Dose","SITEGR1":900,"SITEID":701,"TRTSDT":"2012-09-07","TRTEDT":"2012-09-16","ITTFL":"Y","SAFFL":"Y","EFFFL":"N","COMPLFL":"N","CMCLASX":"(uncoded - no WHO-DD therapeutic class in source)"},{"STUDYID":"CDISCPILOT01","USUBJID":"01-701-1111","CMSEQ":22,"CMTRT":"PROVERA","CMINDC":"","CMDOSE":2.5,"CMDOSU":"mg","CMROUTE":"ORAL","ASTDT":null,"AENDT":null,"ASTDY":null,"AOCCFL":null,"TRTP":"Xanomeline Low Dose","TRT01P":"Xanomeline Low Dose","TRT01PN":null,"TRT01A":"Xanomeline Low Dose","SITEGR1":900,"SITEID":701,"TRTSDT":"2012-09-07","TRTEDT":"2012-09-16","ITTFL":"Y","SAFFL":"Y","EFFFL":"N","COMPLFL":"N","CMCLASX":"(uncoded - no WHO-DD therapeutic class in source)"},{"STUDYID":"CDISCPILOT01","USUBJID":"01-701-1111","CMSEQ":28,"CMTRT":"PROVERA","CMINDC":"","CMDOSE":2.5,"CMDOSU":"mg","CMROUTE":"ORAL","ASTDT":null,"AENDT":null,"ASTDY":null,"AOCCFL":null,"TRTP":"Xanomeline Low Dose","TRT01P":"Xanomeline Low Dose","TRT01PN":null,"TRT01A":"Xanomeline Low Dose","SITEGR1":900,"SITEID":701,"TRTSDT":"2012-09-07","TRTEDT":"2012-09-16","ITTFL":"Y","SAFFL":"Y","EFFFL":"N","COMPLFL":"N","CMCLASX":"(uncoded - no WHO-DD therapeutic class in source)"},{"STUDYID":"CDISCPILOT01","USUBJID":"01-701-1111","CMSEQ":34,"CMTRT":"PROVERA","CMINDC":"","CMDOSE":2.5,"CMDOSU":"mg","CMROUTE":"ORAL","ASTDT":null,"AENDT":null,"ASTDY":null,"AOCCFL":null,"TRTP":"Xanomeline Low Dose","TRT01P":"Xanomeline Low Dose","TRT01PN":null,"TRT01A":"Xanomeline Low Dose","SITEGR1":900,"SITEID":701,"TRTSDT":"2012-09-07","TRTEDT":"2012-09-16","ITTFL":"Y","SAFFL":"Y","EFFFL":"N","COMPLFL":"N","CMCLASX":"(uncoded - no WHO-DD therapeutic class in source)"},{"STUDYID":"CDISCPILOT01","USUBJID":"01-701-1111","CMSEQ":1,"CMTRT":"SYNTHROID","CMINDC":"","CMDOSE":0.075,"CMDOSU":"mg","CMROUTE":"ORAL","ASTDT":null,"AENDT":null,"ASTDY":null,"AOCCFL":"Y","TRTP":"Xanomeline Low Dose","TRT01P":"Xanomeline Low Dose","TRT01PN":null,"TRT01A":"Xanomeline Low Dose","SITEGR1":900,"SITEID":701,"TRTSDT":"2012-09-07","TRTEDT":"2012-09-16","ITTFL":"Y","SAFFL":"Y","EFFFL":"N","COMPLFL":"N","CMCLASX":"(uncoded - no WHO-DD therapeutic class in source)"},{"STUDYID":"CDISCPILOT01","USUBJID":"01-701-1111","CMSEQ":7,"CMTRT":"SYNTHROID","CMINDC":"","CMDOSE":0.075,"CMDOSU":"mg","CMROUTE":"ORAL","ASTDT":null,"AENDT":null,"ASTDY":null,"AOCCFL":null,"TRTP":"Xanomeline Low Dose","TRT01P":"Xanomeline Low Dose","TRT01PN":null,"TRT01A":"Xanomeline Low Dose","SITEGR1":900,"SITEID":701,"TRTSDT":"2012-09-07","TRTEDT":"2012-09-16","ITTFL":"Y","SAFFL":"Y","EFFFL":"N","COMPLFL":"N","CMCLASX":"(uncoded - no WHO-DD therapeutic class in source)"},{"STUDYID":"CDISCPILOT01","USUBJID":"01-701-1111","CMSEQ":14,"CMTRT":"SYNTHROID","CMINDC":"","CMDOSE":0.075,"CMDOSU":"mg","CMROUTE":"ORAL","ASTDT":null,"AENDT":null,"ASTDY":null,"AOCCFL":null,"TRTP":"Xanomeline Low Dose","TRT01P":"Xanomeline Low Dose","TRT01PN":null,"TRT01A":"Xanomeline Low Dose","SITEGR1":900,"SITEID":701,"TRTSDT":"2012-09-07","TRTEDT":"2012-09-16","ITTFL":"Y","SAFFL":"Y","EFFFL":"N","COMPLFL":"N","CMCLASX":"(uncoded - no WHO-DD therapeutic class in source)"},{"STUDYID":"CDISCPILOT01","USUBJID":"01-701-1111","CMSEQ":20,"CMTRT":"SYNTHROID","CMINDC":"","CMDOSE":0.075,"CMDOSU":"mg","CMROUTE":"ORAL","ASTDT":null,"AENDT":null,"ASTDY":null,"AOCCFL":null,"TRTP":"Xanomeline Low Dose","TRT01P":"Xanomeline Low Dose","TRT01PN":null,"TRT01A":"Xanomeline Low Dose","SITEGR1":900,"SITEID":701,"TRTSDT":"2012-09-07","TRTEDT":"2012-09-16","ITTFL":"Y","SAFFL":"Y","EFFFL":"N","COMPLFL":"N","CMCLASX":"(uncoded - no WHO-DD therapeutic class in source)"},{"STUDYID":"CDISCPILOT01","USUBJID":"01-701-1111","CMSEQ":26,"CMTRT":"SYNTHROID","CMINDC":"","CMDOSE":0.075,"CMDOSU":"mg","CMROUTE":"ORAL","ASTDT":null,"AENDT":null,"ASTDY":null,"AOCCFL":null,"TRTP":"Xanomeline Low Dose","TRT01P":"Xanomeline Low Dose","TRT01PN":null,"TRT01A":"Xanomeline Low Dose","SITEGR1":900,"SITEID":701,"TRTSDT":"2012-09-07","TRTEDT":"2012-09-16","ITTFL":"Y","SAFFL":"Y","EFFFL":"N","COMPLFL":"N","CMCLASX":"(uncoded - no WHO-DD therapeutic class in source)"},{"STUDYID":"CDISCPILOT01","USUBJID":"01-701-1111","CMSEQ":32,"CMTRT":"SYNTHROID","CMINDC":"","CMDOSE":0.075,"CMDOSU":"mg","CMROUTE":"ORAL","ASTDT":null,"AENDT":null,"ASTDY":null,"AOCCFL":null,"TRTP":"Xanomeline Low Dose","TRT01P":"Xanomeline Low Dose","TRT01PN":null,"TRT01A":"Xanomeline Low Dose","SITEGR1":900,"SITEID":701,"TRTSDT":"2012-09-07","TRTEDT":"2012-09-16","ITTFL":"Y","SAFFL":"Y","EFFFL":"N","COMPLFL":"N","CMCLASX":"(uncoded - no WHO-DD therapeutic class in source)"},{"STUDYID":"CDISCPILOT01","USUBJID":"01-701-1115","CMSEQ":25,"CMTRT":"ASPIRIN","CMINDC":"PROPHYLAXIS OR NON-THERAPEUTIC USE","CMDOSE":80,"CMDOSU":"mg","CMROUTE":"ORAL","ASTDT":"2013-04-29","AENDT":null,"ASTDY":151,"AOCCFL":"Y","TRTP":"Xanomeline Low Dose","TRT01P":"Xanomeline Low Dose","TRT01PN":null,"TRT01A":"Xanomeline Low Dose","SITEGR1":900,"SITEID":701,"TRTSDT":"2012-11-30","TRTEDT":"2013-01-23","ITTFL":"Y","SAFFL":"Y","EFFFL":"N","COMPLFL":"N","CMCLASX":"(uncoded - no WHO-DD therapeutic class in source)"},{"STUDYID":"CDISCPILOT01","USUBJID":"01-701-1115","CMSEQ":1,"CMTRT":"ASPIRIN","CMINDC":"","CMDOSE":1,"CMDOSU":"TABLET","CMROUTE":"ORAL","ASTDT":null,"AENDT":null,"ASTDY":null,"AOCCFL":null,"TRTP":"Xanomeline Low Dose","TRT01P":"Xanomeline Low Dose","TRT01PN":null,"TRT01A":"Xanomeline Low Dose","SITEGR1":900,"SITEID":701,"TRTSDT":"2012-11-30","TRTEDT":"2013-01-23","ITTFL":"Y","SAFFL":"Y","EFFFL":"N","COMPLFL":"N","CMCLASX":"(uncoded - no WHO-DD therapeutic class in source)"},{"STUDYID":"CDISCPILOT01","USUBJID":"01-701-1115","CMSEQ":3,"CMTRT":"ASPIRIN","CMINDC":"","CMDOSE":1,"CMDOSU":"TABLET","CMROUTE":"ORAL","ASTDT":null,"AENDT":null,"ASTDY":null,"AOCCFL":null,"TRTP":"Xanomeline Low Dose","TRT01P":"Xanomeline Low Dose","TRT01PN":null,"TRT01A":"Xanomeline Low Dose","SITEGR1":900,"SITEID":701,"TRTSDT":"2012-11-30","TRTEDT":"2013-01-23","ITTFL":"Y","SAFFL":"Y","EFFFL":"N","COMPLFL":"N","CMCLASX":"(uncoded - no WHO-DD therapeutic class in source)"},{"STUDYID":"CDISCPILOT01","USUBJID":"01-701-1115","CMSEQ":5,"CMTRT":"ASPIRIN","CMINDC":"","CMDOSE":1,"CMDOSU":"TABLET","CMROUTE":"ORAL","ASTDT":null,"AENDT":null,"ASTDY":null,"AOCCFL":null,"TRTP":"Xanomeline Low Dose","TRT01P":"Xanomeline Low Dose","TRT01PN":null,"TRT01A":"Xanomeline Low Dose","SITEGR1":900,"SITEID":701,"TRTSDT":"2012-11-30","TRTEDT":"2013-01-23","ITTFL":"Y","SAFFL":"Y","EFFFL":"N","COMPLFL":"N","CMCLASX":"(uncoded - no WHO-DD therapeutic class in source)"},{"STUDYID":"CDISCPILOT01","USUBJID":"01-701-1115","CMSEQ":7,"CMTRT":"ASPIRIN","CMINDC":"","CMDOSE":1,"CMDOSU":"TABLET","CMROUTE":"ORAL","ASTDT":null,"AENDT":null,"ASTDY":null,"AOCCFL":null,"TRTP":"Xanomeline Low Dose","TRT01P":"Xanomeline Low Dose","TRT01PN":null,"TRT01A":"Xanomeline Low Dose","SITEGR1":900,"SITEID":701,"TRTSDT":"2012-11-30","TRTEDT":"2013-01-23","ITTFL":"Y","SAFFL":"Y","EFFFL":"N","COMPLFL":"N","CMCLASX":"(uncoded - no WHO-DD therapeutic class in source)"},{"STUDYID":"CDISCPILOT01","USUBJID":"01-701-1115","CMSEQ":9,"CMTRT":"ASPIRIN","CMINDC":"","CMDOSE":1,"CMDOSU":"TABLET","CMROUTE":"ORAL","ASTDT":null,"AENDT":null,"ASTDY":null,"AOCCFL":null,"TRTP":"Xanomeline Low Dose","TRT01P":"Xanomeline Low Dose","TRT01PN":null,"TRT01A":"Xanomeline Low Dose","SITEGR1":900,"SITEID":701,"TRTSDT":"2012-11-30","TRTEDT":"2013-01-23","ITTFL":"Y","SAFFL":"Y","EFFFL":"N","COMPLFL":"N","CMCLASX":"(uncoded - no WHO-DD therapeutic class in source)"},{"STUDYID":"CDISCPILOT01","USUBJID":"01-701-1115","CMSEQ":11,"CMTRT":"ASPIRIN","CMINDC":"","CMDOSE":1,"CMDOSU":"TABLET","CMROUTE":"ORAL","ASTDT":null,"AENDT":null,"ASTDY":null,"AOCCFL":null,"TRTP":"Xanomeline Low Dose","TRT01P":"Xanomeline Low Dose","TRT01PN":null,"TRT01A":"Xanomeline Low Dose","SITEGR1":900,"SITEID":701,"TRTSDT":"2012-11-30","TRTEDT":"2013-01-23","ITTFL":"Y","SAFFL":"Y","EFFFL":"N","COMPLFL":"N","CMCLASX":"(uncoded - no WHO-DD therapeutic class in source)"},{"STUDYID":"CDISCPILOT01","USUBJID":"01-701-1115","CMSEQ":13,"CMTRT":"ASPIRIN","CMINDC":"","CMDOSE":1,"CMDOSU":"TABLET","CMROUTE":"ORAL","ASTDT":null,"AENDT":null,"ASTDY":null,"AOCCFL":null,"TRTP":"Xanomeline Low Dose","TRT01P":"Xanomeline Low Dose","TRT01PN":null,"TRT01A":"Xanomeline Low Dose","SITEGR1":900,"SITEID":701,"TRTSDT":"2012-11-30","TRTEDT":"2013-01-23","ITTFL":"Y","SAFFL":"Y","EFFFL":"N","COMPLFL":"N","CMCLASX":"(uncoded - no WHO-DD therapeutic class in source)"},{"STUDYID":"CDISCPILOT01","USUBJID":"01-701-1115","CMSEQ":15,"CMTRT":"ASPIRIN","CMINDC":"","CMDOSE":1,"CMDOSU":"TABLET","CMROUTE":"ORAL","ASTDT":null,"AENDT":null,"ASTDY":null,"AOCCFL":null,"TRTP":"Xanomeline Low Dose","TRT01P":"Xanomeline Low Dose","TRT01PN":null,"TRT01A":"Xanomeline Low Dose","SITEGR1":900,"SITEID":701,"TRTSDT":"2012-11-30","TRTEDT":"2013-01-23","ITTFL":"Y","SAFFL":"Y","EFFFL":"N","COMPLFL":"N","CMCLASX":"(uncoded - no WHO-DD therapeutic class in source)"},{"STUDYID":"CDISCPILOT01","USUBJID":"01-701-1115","CMSEQ":18,"CMTRT":"ASPIRIN","CMINDC":"","CMDOSE":1,"CMDOSU":"TABLET","CMROUTE":"ORAL","ASTDT":null,"AENDT":null,"ASTDY":null,"AOCCFL":null,"TRTP":"Xanomeline Low Dose","TRT01P":"Xanomeline Low Dose","TRT01PN":null,"TRT01A":"Xanomeline Low Dose","SITEGR1":900,"SITEID":701,"TRTSDT":"2012-11-30","TRTEDT":"2013-01-23","ITTFL":"Y","SAFFL":"Y","EFFFL":"N","COMPLFL":"N","CMCLASX":"(uncoded - no WHO-DD therapeutic class in source)"},{"STUDYID":"CDISCPILOT01","USUBJID":"01-701-1115","CMSEQ":21,"CMTRT":"ASPIRIN","CMINDC":"","CMDOSE":1,"CMDOSU":"TABLET","CMROUTE":"ORAL","ASTDT":null,"AENDT":null,"ASTDY":null,"AOCCFL":null,"TRTP":"Xanomeline Low Dose","TRT01P":"Xanomeline Low Dose","TRT01PN":null,"TRT01A":"Xanomeline Low Dose","SITEGR1":900,"SITEID":701,"TRTSDT":"2012-11-30","TRTEDT":"2013-01-23","ITTFL":"Y","SAFFL":"Y","EFFFL":"N","COMPLFL":"N","CMCLASX":"(uncoded - no WHO-DD therapeutic class in source)"},{"STUDYID":"CDISCPILOT01","USUBJID":"01-701-1115","CMSEQ":26,"CMTRT":"FEOSOL","CMINDC":"PROPHYLAXIS OR NON-THERAPEUTIC USE","CMDOSE":325,"CMDOSU":"mg","CMROUTE":"ORAL","ASTDT":"2013-04-29","AENDT":null,"ASTDY":151,"AOCCFL":"Y","TRTP":"Xanomeline Low Dose","TRT01P":"Xanomeline Low Dose","TRT01PN":null,"TRT01A":"Xanomeline Low Dose","SITEGR1":900,"SITEID":701,"TRTSDT":"2012-11-30","TRTEDT":"2013-01-23","ITTFL":"Y","SAFFL":"Y","EFFFL":"N","COMPLFL":"N","CMCLASX":"(uncoded - no WHO-DD therapeutic class in source)"},{"STUDYID":"CDISCPILOT01","USUBJID":"01-701-1115","CMSEQ":17,"CMTRT":"HYDROCORTISONE, TOPICAL","CMINDC":"","CMDOSE":1,"CMDOSU":"VIAL","CMROUTE":"TOPICAL","ASTDT":"2013-01-11","AENDT":null,"ASTDY":43,"AOCCFL":"Y","TRTP":"Xanomeline Low Dose","TRT01P":"Xanomeline Low Dose","TRT01PN":null,"TRT01A":"Xanomeline Low Dose","SITEGR1":900,"SITEID":701,"TRTSDT":"2012-11-30","TRTEDT":"2013-01-23","ITTFL":"Y","SAFFL":"Y","EFFFL":"N","COMPLFL":"N","CMCLASX":"(uncoded - no WHO-DD therapeutic class in source)"},{"STUDYID":"CDISCPILOT01","USUBJID":"01-701-1115","CMSEQ":20,"CMTRT":"HYDROCORTISONE, TOPICAL","CMINDC":"","CMDOSE":1,"CMDOSU":"VIAL","CMROUTE":"TOPICAL","ASTDT":"2013-01-11","AENDT":null,"ASTDY":43,"AOCCFL":null,"TRTP":"Xanomeline Low Dose","TRT01P":"Xanomeline Low Dose","TRT01PN":null,"TRT01A":"Xanomeline Low Dose","SITEGR1":900,"SITEID":701,"TRTSDT":"2012-11-30","TRTEDT":"2013-01-23","ITTFL":"Y","SAFFL":"Y","EFFFL":"N","COMPLFL":"N","CMCLASX":"(uncoded - no WHO-DD therapeutic class in source)"},{"STUDYID":"CDISCPILOT01","USUBJID":"01-701-1115","CMSEQ":23,"CMTRT":"HYDROCORTISONE, TOPICAL","CMINDC":"","CMDOSE":1,"CMDOSU":"VIAL","CMROUTE":"TOPICAL","ASTDT":"2013-01-11","AENDT":null,"ASTDY":43,"AOCCFL":null,"TRTP":"Xanomeline Low Dose","TRT01P":"Xanomeline Low Dose","TRT01PN":null,"TRT01A":"Xanomeline Low Dose","SITEGR1":900,"SITEID":701,"TRTSDT":"2012-11-30","TRTEDT":"2013-01-23","ITTFL":"Y","SAFFL":"Y","EFFFL":"N","COMPLFL":"N","CMCLASX":"(uncoded - no WHO-DD therapeutic class in source)"},{"STUDYID":"CDISCPILOT01","USUBJID":"01-701-1115","CMSEQ":24,"CMTRT":"HYTRIN","CMINDC":"","CMDOSE":2,"CMDOSU":"mg","CMROUTE":"ORAL","ASTDT":"2013-04-19","AENDT":"2013-05-14","ASTDY":141,"AOCCFL":"Y","TRTP":"Xanomeline Low Dose","TRT01P":"Xanomeline Low Dose","TRT01PN":null,"TRT01A":"Xanomeline Low Dose","SITEGR1":900,"SITEID":701,"TRTSDT":"2012-11-30","TRTEDT":"2013-01-23","ITTFL":"Y","SAFFL":"Y","EFFFL":"N","COMPLFL":"N","CMCLASX":"(uncoded - no WHO-DD therapeutic class in source)"},{"STUDYID":"CDISCPILOT01","USUBJID":"01-701-1115","CMSEQ":2,"CMTRT":"METAMUCIL","CMINDC":"","CMDOSE":1,"CMDOSU":"Tbsp","CMROUTE":"ORAL","ASTDT":null,"AENDT":null,"ASTDY":null,"AOCCFL":"Y","TRTP":"Xanomeline Low Dose","TRT01P":"Xanomeline Low Dose","TRT01PN":null,"TRT01A":"Xanomeline Low Dose","SITEGR1":900,"SITEID":701,"TRTSDT":"2012-11-30","TRTEDT":"2013-01-23","ITTFL":"Y","SAFFL":"Y","EFFFL":"N","COMPLFL":"N","CMCLASX":"(uncoded - no WHO-DD therapeutic class in source)"},{"STUDYID":"CDISCPILOT01","USUBJID":"01-701-1115","CMSEQ":4,"CMTRT":"METAMUCIL","CMINDC":"","CMDOSE":1,"CMDOSU":"Tbsp","CMROUTE":"ORAL","ASTDT":null,"AENDT":null,"ASTDY":null,"AOCCFL":null,"TRTP":"Xanomeline Low Dose","TRT01P":"Xanomeline Low Dose","TRT01PN":null,"TRT01A":"Xanomeline Low Dose","SITEGR1":900,"SITEID":701,"TRTSDT":"2012-11-30","TRTEDT":"2013-01-23","ITTFL":"Y","SAFFL":"Y","EFFFL":"N","COMPLFL":"N","CMCLASX":"(uncoded - no WHO-DD therapeutic class in source)"},{"STUDYID":"CDISCPILOT01","USUBJID":"01-701-1115","CMSEQ":6,"CMTRT":"METAMUCIL","CMINDC":"","CMDOSE":1,"CMDOSU":"Tbsp","CMROUTE":"ORAL","ASTDT":null,"AENDT":null,"ASTDY":null,"AOCCFL":null,"TRTP":"Xanomeline Low Dose","TRT01P":"Xanomeline Low Dose","TRT01PN":null,"TRT01A":"Xanomeline Low Dose","SITEGR1":900,"SITEID":701,"TRTSDT":"2012-11-30","TRTEDT":"2013-01-23","ITTFL":"Y","SAFFL":"Y","EFFFL":"N","COMPLFL":"N","CMCLASX":"(uncoded - no WHO-DD therapeutic class in source)"},{"STUDYID":"CDISCPILOT01","USUBJID":"01-701-1115","CMSEQ":8,"CMTRT":"METAMUCIL","CMINDC":"","CMDOSE":1,"CMDOSU":"Tbsp","CMROUTE":"ORAL","ASTDT":null,"AENDT":null,"ASTDY":null,"AOCCFL":null,"TRTP":"Xanomeline Low Dose","TRT01P":"Xanomeline Low Dose","TRT01PN":null,"TRT01A":"Xanomeline Low Dose","SITEGR1":900,"SITEID":701,"TRTSDT":"2012-11-30","TRTEDT":"2013-01-23","ITTFL":"Y","SAFFL":"Y","EFFFL":"N","COMPLFL":"N","CMCLASX":"(uncoded - no WHO-DD therapeutic class in source)"},{"STUDYID":"CDISCPILOT01","USUBJID":"01-701-1115","CMSEQ":10,"CMTRT":"METAMUCIL","CMINDC":"","CMDOSE":1,"CMDOSU":"Tbsp","CMROUTE":"ORAL","ASTDT":null,"AENDT":null,"ASTDY":null,"AOCCFL":null,"TRTP":"Xanomeline Low Dose","TRT01P":"Xanomeline Low Dose","TRT01PN":null,"TRT01A":"Xanomeline Low Dose","SITEGR1":900,"SITEID":701,"TRTSDT":"2012-11-30","TRTEDT":"2013-01-23","ITTFL":"Y","SAFFL":"Y","EFFFL":"N","COMPLFL":"N","CMCLASX":"(uncoded - no WHO-DD therapeutic class in source)"},{"STUDYID":"CDISCPILOT01","USUBJID":"01-701-1115","CMSEQ":12,"CMTRT":"METAMUCIL","CMINDC":"","CMDOSE":1,"CMDOSU":"Tbsp","CMROUTE":"ORAL","ASTDT":null,"AENDT":null,"ASTDY":null,"AOCCFL":null,"TRTP":"Xanomeline Low Dose","TRT01P":"Xanomeline Low Dose","TRT01PN":null,"TRT01A":"Xanomeline Low Dose","SITEGR1":900,"SITEID":701,"TRTSDT":"2012-11-30","TRTEDT":"2013-01-23","ITTFL":"Y","SAFFL":"Y","EFFFL":"N","COMPLFL":"N","CMCLASX":"(uncoded - no WHO-DD therapeutic class in source)"},{"STUDYID":"CDISCPILOT01","USUBJID":"01-701-1115","CMSEQ":14,"CMTRT":"METAMUCIL","CMINDC":"","CMDOSE":1,"CMDOSU":"Tbsp","CMROUTE":"ORAL","ASTDT":null,"AENDT":null,"ASTDY":null,"AOCCFL":null,"TRTP":"Xanomeline Low Dose","TRT01P":"Xanomeline Low Dose","TRT01PN":null,"TRT01A":"Xanomeline Low Dose","SITEGR1":900,"SITEID":701,"TRTSDT":"2012-11-30","TRTEDT":"2013-01-23","ITTFL":"Y","SAFFL":"Y","EFFFL":"N","COMPLFL":"N","CMCLASX":"(uncoded - no WHO-DD therapeutic class in source)"},{"STUDYID":"CDISCPILOT01","USUBJID":"01-701-1115","CMSEQ":16,"CMTRT":"METAMUCIL","CMINDC":"","CMDOSE":1,"CMDOSU":"Tbsp","CMROUTE":"ORAL","ASTDT":null,"AENDT":null,"ASTDY":null,"AOCCFL":null,"TRTP":"Xanomeline Low Dose","TRT01P":"Xanomeline Low Dose","TRT01PN":null,"TRT01A":"Xanomeline Low Dose","SITEGR1":900,"SITEID":701,"TRTSDT":"2012-11-30","TRTEDT":"2013-01-23","ITTFL":"Y","SAFFL":"Y","EFFFL":"N","COMPLFL":"N","CMCLASX":"(uncoded - no WHO-DD therapeutic class in source)"},{"STUDYID":"CDISCPILOT01","USUBJID":"01-701-1115","CMSEQ":19,"CMTRT":"METAMUCIL","CMINDC":"","CMDOSE":1,"CMDOSU":"Tbsp","CMROUTE":"ORAL","ASTDT":null,"AENDT":null,"ASTDY":null,"AOCCFL":null,"TRTP":"Xanomeline Low Dose","TRT01P":"Xanomeline Low Dose","TRT01PN":null,"TRT01A":"Xanomeline Low Dose","SITEGR1":900,"SITEID":701,"TRTSDT":"2012-11-30","TRTEDT":"2013-01-23","ITTFL":"Y","SAFFL":"Y","EFFFL":"N","COMPLFL":"N","CMCLASX":"(uncoded - no WHO-DD therapeutic class in source)"},{"STUDYID":"CDISCPILOT01","USUBJID":"01-701-1115","CMSEQ":22,"CMTRT":"METAMUCIL","CMINDC":"","CMDOSE":1,"CMDOSU":"Tbsp","CMROUTE":"ORAL","ASTDT":null,"AENDT":null,"ASTDY":null,"AOCCFL":null,"TRTP":"Xanomeline Low Dose","TRT01P":"Xanomeline Low Dose","TRT01PN":null,"TRT01A":"Xanomeline Low Dose","SITEGR1":900,"SITEID":701,"TRTSDT":"2012-11-30","TRTEDT":"2013-01-23","ITTFL":"Y","SAFFL":"Y","EFFFL":"N","COMPLFL":"N","CMCLASX":"(uncoded - no WHO-DD therapeutic class in source)"},{"STUDYID":"CDISCPILOT01","USUBJID":"01-701-1115","CMSEQ":27,"CMTRT":"PRAVACHOL","CMINDC":"","CMDOSE":20,"CMDOSU":"mg","CMROUTE":"ORAL","ASTDT":"2013-05-08","AENDT":null,"ASTDY":160,"AOCCFL":"Y","TRTP":"Xanomeline Low Dose","TRT01P":"Xanomeline Low Dose","TRT01PN":null,"TRT01A":"Xanomeline Low Dose","SITEGR1":900,"SITEID":701,"TRTSDT":"2012-11-30","TRTEDT":"2013-01-23","ITTFL":"Y","SAFFL":"Y","EFFFL":"N","COMPLFL":"N","CMCLASX":"(uncoded - no WHO-DD therapeutic class in source)"},{"STUDYID":"CDISCPILOT01","USUBJID":"01-701-1118","CMSEQ":1,"CMTRT":"ASPIRIN","CMINDC":"PROPHYLAXIS OR NON-THERAPEUTIC USE","CMDOSE":325,"CMDOSU":"mg","CMROUTE":"ORAL","ASTDT":"2000-12-10","AENDT":null,"ASTDY":-4840,"AOCCFL":"Y","TRTP":"Placebo","TRT01P":"Placebo","TRT01PN":null,"TRT01A":"Placebo","SITEGR1":900,"SITEID":701,"TRTSDT":"2014-03-12","TRTEDT":"2014-09-09","ITTFL":"Y","SAFFL":"Y","EFFFL":"N","COMPLFL":"Y","CMCLASX":"(uncoded - no WHO-DD therapeutic class in source)"},{"STUDYID":"CDISCPILOT01","USUBJID":"01-701-1118","CMSEQ":3,"CMTRT":"ASPIRIN","CMINDC":"PROPHYLAXIS OR NON-THERAPEUTIC USE","CMDOSE":325,"CMDOSU":"mg","CMROUTE":"ORAL","ASTDT":"2000-12-10","AENDT":null,"ASTDY":-4840,"AOCCFL":null,"TRTP":"Placebo","TRT01P":"Placebo","TRT01PN":null,"TRT01A":"Placebo","SITEGR1":900,"SITEID":701,"TRTSDT":"2014-03-12","TRTEDT":"2014-09-09","ITTFL":"Y","SAFFL":"Y","EFFFL":"N","COMPLFL":"Y","CMCLASX":"(uncoded - no WHO-DD therapeutic class in source)"},{"STUDYID":"CDISCPILOT01","USUBJID":"01-701-1118","CMSEQ":5,"CMTRT":"ASPIRIN","CMINDC":"PROPHYLAXIS OR NON-THERAPEUTIC USE","CMDOSE":325,"CMDOSU":"mg","CMROUTE":"ORAL","ASTDT":"2000-12-10","AENDT":null,"ASTDY":-4840,"AOCCFL":null,"TRTP":"Placebo","TRT01P":"Placebo","TRT01PN":null,"TRT01A":"Placebo","SITEGR1":900,"SITEID":701,"TRTSDT":"2014-03-12","TRTEDT":"2014-09-09","ITTFL":"Y","SAFFL":"Y","EFFFL":"N","COMPLFL":"Y","CMCLASX":"(uncoded - no WHO-DD therapeutic class in source)"},{"STUDYID":"CDISCPILOT01","USUBJID":"01-701-1118","CMSEQ":7,"CMTRT":"ASPIRIN","CMINDC":"PROPHYLAXIS OR NON-THERAPEUTIC USE","CMDOSE":325,"CMDOSU":"mg","CMROUTE":"ORAL","ASTDT":"2000-12-10","AENDT":null,"ASTDY":-4840,"AOCCFL":null,"TRTP":"Placebo","TRT01P":"Placebo","TRT01PN":null,"TRT01A":"Placebo","SITEGR1":900,"SITEID":701,"TRTSDT":"2014-03-12","TRTEDT":"2014-09-09","ITTFL":"Y","SAFFL":"Y","EFFFL":"N","COMPLFL":"Y","CMCLASX":"(uncoded - no WHO-DD therapeutic class in source)"},{"STUDYID":"CDISCPILOT01","USUBJID":"01-701-1118","CMSEQ":9,"CMTRT":"ASPIRIN","CMINDC":"PROPHYLAXIS OR NON-THERAPEUTIC USE","CMDOSE":325,"CMDOSU":"mg","CMROUTE":"ORAL","ASTDT":"2000-12-10","AENDT":null,"ASTDY":-4840,"AOCCFL":null,"TRTP":"Placebo","TRT01P":"Placebo","TRT01PN":null,"TRT01A":"Placebo","SITEGR1":900,"SITEID":701,"TRTSDT":"2014-03-12","TRTEDT":"2014-09-09","ITTFL":"Y","SAFFL":"Y","EFFFL":"N","COMPLFL":"Y","CMCLASX":"(uncoded - no WHO-DD therapeutic class in source)"},{"STUDYID":"CDISCPILOT01","USUBJID":"01-701-1118","CMSEQ":11,"CMTRT":"ASPIRIN","CMINDC":"PROPHYLAXIS OR NON-THERAPEUTIC USE","CMDOSE":325,"CMDOSU":"mg","CMROUTE":"ORAL","ASTDT":"2000-12-10","AENDT":null,"ASTDY":-4840,"AOCCFL":null,"TRTP":"Placebo","TRT01P":"Placebo","TRT01PN":null,"TRT01A":"Placebo","SITEGR1":900,"SITEID":701,"TRTSDT":"2014-03-12","TRTEDT":"2014-09-09","ITTFL":"Y","SAFFL":"Y","EFFFL":"N","COMPLFL":"Y","CMCLASX":"(uncoded - no WHO-DD therapeutic class in source)"},{"STUDYID":"CDISCPILOT01","USUBJID":"01-701-1118","CMSEQ":13,"CMTRT":"ASPIRIN","CMINDC":"PROPHYLAXIS OR NON-THERAPEUTIC USE","CMDOSE":325,"CMDOSU":"mg","CMROUTE":"ORAL","ASTDT":"2000-12-10","AENDT":null,"ASTDY":-4840,"AOCCFL":null,"TRTP":"Placebo","TRT01P":"Placebo","TRT01PN":null,"TRT01A":"Placebo","SITEGR1":900,"SITEID":701,"TRTSDT":"2014-03-12","TRTEDT":"2014-09-09","ITTFL":"Y","SAFFL":"Y","EFFFL":"N","COMPLFL":"Y","CMCLASX":"(uncoded - no WHO-DD therapeutic class in source)"},{"STUDYID":"CDISCPILOT01","USUBJID":"01-701-1118","CMSEQ":15,"CMTRT":"ASPIRIN","CMINDC":"PROPHYLAXIS OR NON-THERAPEUTIC USE","CMDOSE":325,"CMDOSU":"mg","CMROUTE":"ORAL","ASTDT":"2000-12-10","AENDT":null,"ASTDY":-4840,"AOCCFL":null,"TRTP":"Placebo","TRT01P":"Placebo","TRT01PN":null,"TRT01A":"Placebo","SITEGR1":900,"SITEID":701,"TRTSDT":"2014-03-12","TRTEDT":"2014-09-09","ITTFL":"Y","SAFFL":"Y","EFFFL":"N","COMPLFL":"Y","CMCLASX":"(uncoded - no WHO-DD therapeutic class in source)"},{"STUDYID":"CDISCPILOT01","USUBJID":"01-701-1118","CMSEQ":17,"CMTRT":"ASPIRIN","CMINDC":"PROPHYLAXIS OR NON-THERAPEUTIC USE","CMDOSE":325,"CMDOSU":"mg","CMROUTE":"ORAL","ASTDT":"2000-12-10","AENDT":null,"ASTDY":-4840,"AOCCFL":null,"TRTP":"Placebo","TRT01P":"Placebo","TRT01PN":null,"TRT01A":"Placebo","SITEGR1":900,"SITEID":701,"TRTSDT":"2014-03-12","TRTEDT":"2014-09-09","ITTFL":"Y","SAFFL":"Y","EFFFL":"N","COMPLFL":"Y","CMCLASX":"(uncoded - no WHO-DD therapeutic class in source)"},{"STUDYID":"CDISCPILOT01","USUBJID":"01-701-1118","CMSEQ":19,"CMTRT":"ASPIRIN","CMINDC":"PROPHYLAXIS OR NON-THERAPEUTIC USE","CMDOSE":325,"CMDOSU":"mg","CMROUTE":"ORAL","ASTDT":"2000-12-10","AENDT":null,"ASTDY":-4840,"AOCCFL":null,"TRTP":"Placebo","TRT01P":"Placebo","TRT01PN":null,"TRT01A":"Placebo","SITEGR1":900,"SITEID":701,"TRTSDT":"2014-03-12","TRTEDT":"2014-09-09","ITTFL":"Y","SAFFL":"Y","EFFFL":"N","COMPLFL":"Y","CMCLASX":"(uncoded - no WHO-DD therapeutic class in source)"},{"STUDYID":"CDISCPILOT01","USUBJID":"01-701-1118","CMSEQ":21,"CMTRT":"ASPIRIN","CMINDC":"PROPHYLAXIS OR NON-THERAPEUTIC USE","CMDOSE":325,"CMDOSU":"mg","CMROUTE":"ORAL","ASTDT":"2000-12-10","AENDT":null,"ASTDY":-4840,"AOCCFL":null,"TRTP":"Placebo","TRT01P":"Placebo","TRT01PN":null,"TRT01A":"Placebo","SITEGR1":900,"SITEID":701,"TRTSDT":"2014-03-12","TRTEDT":"2014-09-09","ITTFL":"Y","SAFFL":"Y","EFFFL":"N","COMPLFL":"Y","CMCLASX":"(uncoded - no WHO-DD therapeutic class in source)"},{"STUDYID":"CDISCPILOT01","USUBJID":"01-701-1118","CMSEQ":23,"CMTRT":"ASPIRIN","CMINDC":"PROPHYLAXIS OR NON-THERAPEUTIC USE","CMDOSE":325,"CMDOSU":"mg","CMROUTE":"ORAL","ASTDT":"2000-12-10","AENDT":null,"ASTDY":-4840,"AOCCFL":null,"TRTP":"Placebo","TRT01P":"Placebo","TRT01PN":null,"TRT01A":"Placebo","SITEGR1":900,"SITEID":701,"TRTSDT":"2014-03-12","TRTEDT":"2014-09-09","ITTFL":"Y","SAFFL":"Y","EFFFL":"N","COMPLFL":"Y","CMCLASX":"(uncoded - no WHO-DD therapeutic class in source)"},{"STUDYID":"CDISCPILOT01","USUBJID":"01-701-1118","CMSEQ":25,"CMTRT":"ASPIRIN","CMINDC":"PROPHYLAXIS OR NON-THERAPEUTIC USE","CMDOSE":325,"CMDOSU":"mg","CMROUTE":"ORAL","ASTDT":"2000-12-10","AENDT":null,"ASTDY":-4840,"AOCCFL":null,"TRTP":"Placebo","TRT01P":"Placebo","TRT01PN":null,"TRT01A":"Placebo","SITEGR1":900,"SITEID":701,"TRTSDT":"2014-03-12","TRTEDT":"2014-09-09","ITTFL":"Y","SAFFL":"Y","EFFFL":"N","COMPLFL":"Y","CMCLASX":"(uncoded - no WHO-DD therapeutic class in source)"},{"STUDYID":"CDISCPILOT01","USUBJID":"01-701-1118","CMSEQ":2,"CMTRT":"MULTIVITAMIN","CMINDC":"PROPHYLAXIS OR NON-THERAPEUTIC USE","CMDOSE":1,"CMDOSU":"TABLET","CMROUTE":"ORAL","ASTDT":"2012-01-21","AENDT":null,"ASTDY":-781,"AOCCFL":"Y","TRTP":"Placebo","TRT01P":"Placebo","TRT01PN":null,"TRT01A":"Placebo","SITEGR1":900,"SITEID":701,"TRTSDT":"2014-03-12","TRTEDT":"2014-09-09","ITTFL":"Y","SAFFL":"Y","EFFFL":"N","COMPLFL":"Y","CMCLASX":"(uncoded - no WHO-DD therapeutic class in source)"},{"STUDYID":"CDISCPILOT01","USUBJID":"01-701-1118","CMSEQ":4,"CMTRT":"MULTIVITAMIN","CMINDC":"PROPHYLAXIS OR NON-THERAPEUTIC USE","CMDOSE":1,"CMDOSU":"TABLET","CMROUTE":"ORAL","ASTDT":"2012-01-21","AENDT":null,"ASTDY":-781,"AOCCFL":null,"TRTP":"Placebo","TRT01P":"Placebo","TRT01PN":null,"TRT01A":"Placebo","SITEGR1":900,"SITEID":701,"TRTSDT":"2014-03-12","TRTEDT":"2014-09-09","ITTFL":"Y","SAFFL":"Y","EFFFL":"N","COMPLFL":"Y","CMCLASX":"(uncoded - no WHO-DD therapeutic class in source)"},{"STUDYID":"CDISCPILOT01","USUBJID":"01-701-1118","CMSEQ":6,"CMTRT":"MULTIVITAMIN","CMINDC":"PROPHYLAXIS OR NON-THERAPEUTIC USE","CMDOSE":1,"CMDOSU":"TABLET","CMROUTE":"ORAL","ASTDT":"2012-01-21","AENDT":null,"ASTDY":-781,"AOCCFL":null,"TRTP":"Placebo","TRT01P":"Placebo","TRT01PN":null,"TRT01A":"Placebo","SITEGR1":900,"SITEID":701,"TRTSDT":"2014-03-12","TRTEDT":"2014-09-09","ITTFL":"Y","SAFFL":"Y","EFFFL":"N","COMPLFL":"Y","CMCLASX":"(uncoded - no WHO-DD therapeutic class in source)"},{"STUDYID":"CDISCPILOT01","USUBJID":"01-701-1118","CMSEQ":8,"CMTRT":"MULTIVITAMIN","CMINDC":"PROPHYLAXIS OR NON-THERAPEUTIC USE","CMDOSE":1,"CMDOSU":"TABLET","CMROUTE":"ORAL","ASTDT":"2012-01-21","AENDT":null,"ASTDY":-781,"AOCCFL":null,"TRTP":"Placebo","TRT01P":"Placebo","TRT01PN":null,"TRT01A":"Placebo","SITEGR1":900,"SITEID":701,"TRTSDT":"2014-03-12","TRTEDT":"2014-09-09","ITTFL":"Y","SAFFL":"Y","EFFFL":"N","COMPLFL":"Y","CMCLASX":"(uncoded - no WHO-DD therapeutic class in source)"},{"STUDYID":"CDISCPILOT01","USUBJID":"01-701-1118","CMSEQ":10,"CMTRT":"MULTIVITAMIN","CMINDC":"PROPHYLAXIS OR NON-THERAPEUTIC USE","CMDOSE":1,"CMDOSU":"TABLET","CMROUTE":"ORAL","ASTDT":"2012-01-21","AENDT":null,"ASTDY":-781,"AOCCFL":null,"TRTP":"Placebo","TRT01P":"Placebo","TRT01PN":null,"TRT01A":"Placebo","SITEGR1":900,"SITEID":701,"TRTSDT":"2014-03-12","TRTEDT":"2014-09-09","ITTFL":"Y","SAFFL":"Y","EFFFL":"N","COMPLFL":"Y","CMCLASX":"(uncoded - no WHO-DD therapeutic class in source)"},{"STUDYID":"CDISCPILOT01","USUBJID":"01-701-1118","CMSEQ":12,"CMTRT":"MULTIVITAMIN","CMINDC":"PROPHYLAXIS OR NON-THERAPEUTIC USE","CMDOSE":1,"CMDOSU":"TABLET","CMROUTE":"ORAL","ASTDT":"2012-01-21","AENDT":null,"ASTDY":-781,"AOCCFL":null,"TRTP":"Placebo","TRT01P":"Placebo","TRT01PN":null,"TRT01A":"Placebo","SITEGR1":900,"SITEID":701,"TRTSDT":"2014-03-12","TRTEDT":"2014-09-09","ITTFL":"Y","SAFFL":"Y","EFFFL":"N","COMPLFL":"Y","CMCLASX":"(uncoded - no WHO-DD therapeutic class in source)"},{"STUDYID":"CDISCPILOT01","USUBJID":"01-701-1118","CMSEQ":14,"CMTRT":"MULTIVITAMIN","CMINDC":"PROPHYLAXIS OR NON-THERAPEUTIC USE","CMDOSE":1,"CMDOSU":"TABLET","CMROUTE":"ORAL","ASTDT":"2012-01-21","AENDT":null,"ASTDY":-781,"AOCCFL":null,"TRTP":"Placebo","TRT01P":"Placebo","TRT01PN":null,"TRT01A":"Placebo","SITEGR1":900,"SITEID":701,"TRTSDT":"2014-03-12","TRTEDT":"2014-09-09","ITTFL":"Y","SAFFL":"Y","EFFFL":"N","COMPLFL":"Y","CMCLASX":"(uncoded - no WHO-DD therapeutic class in source)"},{"STUDYID":"CDISCPILOT01","USUBJID":"01-701-1118","CMSEQ":16,"CMTRT":"MULTIVITAMIN","CMINDC":"PROPHYLAXIS OR NON-THERAPEUTIC USE","CMDOSE":1,"CMDOSU":"TABLET","CMROUTE":"ORAL","ASTDT":"2012-01-21","AENDT":null,"ASTDY":-781,"AOCCFL":null,"TRTP":"Placebo","TRT01P":"Placebo","TRT01PN":null,"TRT01A":"Placebo","SITEGR1":900,"SITEID":701,"TRTSDT":"2014-03-12","TRTEDT":"2014-09-09","ITTFL":"Y","SAFFL":"Y","EFFFL":"N","COMPLFL":"Y","CMCLASX":"(uncoded - no WHO-DD therapeutic class in source)"},{"STUDYID":"CDISCPILOT01","USUBJID":"01-701-1118","CMSEQ":18,"CMTRT":"MULTIVITAMIN","CMINDC":"PROPHYLAXIS OR NON-THERAPEUTIC USE","CMDOSE":1,"CMDOSU":"TABLET","CMROUTE":"ORAL","ASTDT":"2012-01-21","AENDT":null,"ASTDY":-781,"AOCCFL":null,"TRTP":"Placebo","TRT01P":"Placebo","TRT01PN":null,"TRT01A":"Placebo","SITEGR1":900,"SITEID":701,"TRTSDT":"2014-03-12","TRTEDT":"2014-09-09","ITTFL":"Y","SAFFL":"Y","EFFFL":"N","COMPLFL":"Y","CMCLASX":"(uncoded - no WHO-DD therapeutic class in source)"},{"STUDYID":"CDISCPILOT01","USUBJID":"01-701-1118","CMSEQ":20,"CMTRT":"MULTIVITAMIN","CMINDC":"PROPHYLAXIS OR NON-THERAPEUTIC USE","CMDOSE":1,"CMDOSU":"TABLET","CMROUTE":"ORAL","ASTDT":"2012-01-21","AENDT":null,"ASTDY":-781,"AOCCFL":null,"TRTP":"Placebo","TRT01P":"Placebo","TRT01PN":null,"TRT01A":"Placebo","SITEGR1":900,"SITEID":701,"TRTSDT":"2014-03-12","TRTEDT":"2014-09-09","ITTFL":"Y","SAFFL":"Y","EFFFL":"N","COMPLFL":"Y","CMCLASX":"(uncoded - no WHO-DD therapeutic class in source)"},{"STUDYID":"CDISCPILOT01","USUBJID":"01-701-1118","CMSEQ":22,"CMTRT":"MULTIVITAMIN","CMINDC":"PROPHYLAXIS OR NON-THERAPEUTIC USE","CMDOSE":1,"CMDOSU":"TABLET","CMROUTE":"ORAL","ASTDT":"2012-01-21","AENDT":null,"ASTDY":-781,"AOCCFL":null,"TRTP":"Placebo","TRT01P":"Placebo","TRT01PN":null,"TRT01A":"Placebo","SITEGR1":900,"SITEID":701,"TRTSDT":"2014-03-12","TRTEDT":"2014-09-09","ITTFL":"Y","SAFFL":"Y","EFFFL":"N","COMPLFL":"Y","CMCLASX":"(uncoded - no WHO-DD therapeutic class in source)"},{"STUDYID":"CDISCPILOT01","USUBJID":"01-701-1118","CMSEQ":24,"CMTRT":"MULTIVITAMIN","CMINDC":"PROPHYLAXIS OR NON-THERAPEUTIC USE","CMDOSE":1,"CMDOSU":"TABLET","CMROUTE":"ORAL","ASTDT":"2012-01-21","AENDT":null,"ASTDY":-781,"AOCCFL":null,"TRTP":"Placebo","TRT01P":"Placebo","TRT01PN":null,"TRT01A":"Placebo","SITEGR1":900,"SITEID":701,"TRTSDT":"2014-03-12","TRTEDT":"2014-09-09","ITTFL":"Y","SAFFL":"Y","EFFFL":"N","COMPLFL":"Y","CMCLASX":"(uncoded - no WHO-DD therapeutic class in source)"},{"STUDYID":"CDISCPILOT01","USUBJID":"01-701-1118","CMSEQ":26,"CMTRT":"MULTIVITAMIN","CMINDC":"PROPHYLAXIS OR NON-THERAPEUTIC USE","CMDOSE":1,"CMDOSU":"TABLET","CMROUTE":"ORAL","ASTDT":"2012-01-21","AENDT":null,"ASTDY":-781,"AOCCFL":null,"TRTP":"Placebo","TRT01P":"Placebo","TRT01PN":null,"TRT01A":"Placebo","SITEGR1":900,"SITEID":701,"TRTSDT":"2014-03-12","TRTEDT":"2014-09-09","ITTFL":"Y","SAFFL":"Y","EFFFL":"N","COMPLFL":"Y","CMCLASX":"(uncoded - no WHO-DD therapeutic class in source)"},{"STUDYID":"CDISCPILOT01","USUBJID":"01-701-1130","CMSEQ":39,"CMTRT":"ANTIHISTAMINES FOR SYSTEMIC USE","CMINDC":"","CMDOSE":2,"CMDOSU":"TABLET","CMROUTE":"ORAL","ASTDT":"2014-05-09","AENDT":"2014-05-09","ASTDY":84,"AOCCFL":"Y","TRTP":"Placebo","TRT01P":"Placebo","TRT01PN":null,"TRT01A":"Placebo","SITEGR1":900,"SITEID":701,"TRTSDT":"2014-02-15","TRTEDT":"2014-08-16","ITTFL":"Y","SAFFL":"Y","EFFFL":"N","COMPLFL":"Y","CMCLASX":"(uncoded - no WHO-DD therapeutic class in source)"},{"STUDYID":"CDISCPILOT01","USUBJID":"01-701-1130","CMSEQ":1,"CMTRT":"CALCIUM","CMINDC":"PROPHYLAXIS OR NON-THERAPEUTIC USE","CMDOSE":1,"CMDOSU":"TABLET","CMROUTE":"ORAL","ASTDT":null,"AENDT":null,"ASTDY":null,"AOCCFL":"Y","TRTP":"Placebo","TRT01P":"Placebo","TRT01PN":null,"TRT01A":"Placebo","SITEGR1":900,"SITEID":701,"TRTSDT":"2014-02-15","TRTEDT":"2014-08-16","ITTFL":"Y","SAFFL":"Y","EFFFL":"N","COMPLFL":"Y","CMCLASX":"(uncoded - no WHO-DD therapeutic class in source)"},{"STUDYID":"CDISCPILOT01","USUBJID":"01-701-1130","CMSEQ":5,"CMTRT":"CALCIUM","CMINDC":"PROPHYLAXIS OR NON-THERAPEUTIC USE","CMDOSE":1,"CMDOSU":"TABLET","CMROUTE":"ORAL","ASTDT":null,"AENDT":null,"ASTDY":null,"AOCCFL":null,"TRTP":"Placebo","TRT01P":"Placebo","TRT01PN":null,"TRT01A":"Placebo","SITEGR1":900,"SITEID":701,"TRTSDT":"2014-02-15","TRTEDT":"2014-08-16","ITTFL":"Y","SAFFL":"Y","EFFFL":"N","COMPLFL":"Y","CMCLASX":"(uncoded - no WHO-DD therapeutic class in source)"},{"STUDYID":"CDISCPILOT01","USUBJID":"01-701-1130","CMSEQ":9,"CMTRT":"CALCIUM","CMINDC":"PROPHYLAXIS OR NON-THERAPEUTIC USE","CMDOSE":1,"CMDOSU":"TABLET","CMROUTE":"ORAL","ASTDT":null,"AENDT":null,"ASTDY":null,"AOCCFL":null,"TRTP":"Placebo","TRT01P":"Placebo","TRT01PN":null,"TRT01A":"Placebo","SITEGR1":900,"SITEID":701,"TRTSDT":"2014-02-15","TRTEDT":"2014-08-16","ITTFL":"Y","SAFFL":"Y","EFFFL":"N","COMPLFL":"Y","CMCLASX":"(uncoded - no WHO-DD therapeutic class in source)"},{"STUDYID":"CDISCPILOT01","USUBJID":"01-701-1130","CMSEQ":13,"CMTRT":"CALCIUM","CMINDC":"PROPHYLAXIS OR NON-THERAPEUTIC USE","CMDOSE":1,"CMDOSU":"TABLET","CMROUTE":"ORAL","ASTDT":null,"AENDT":null,"ASTDY":null,"AOCCFL":null,"TRTP":"Placebo","TRT01P":"Placebo","TRT01PN":null,"TRT01A":"Placebo","SITEGR1":900,"SITEID":701,"TRTSDT":"2014-02-15","TRTEDT":"2014-08-16","ITTFL":"Y","SAFFL":"Y","EFFFL":"N","COMPLFL":"Y","CMCLASX":"(uncoded - no WHO-DD therapeutic class in source)"},{"STUDYID":"CDISCPILOT01","USUBJID":"01-701-1130","CMSEQ":17,"CMTRT":"CALCIUM","CMINDC":"PROPHYLAXIS OR NON-THERAPEUTIC USE","CMDOSE":1,"CMDOSU":"TABLET","CMROUTE":"ORAL","ASTDT":null,"AENDT":null,"ASTDY":null,"AOCCFL":null,"TRTP":"Placebo","TRT01P":"Placebo","TRT01PN":null,"TRT01A":"Placebo","SITEGR1":900,"SITEID":701,"TRTSDT":"2014-02-15","TRTEDT":"2014-08-16","ITTFL":"Y","SAFFL":"Y","EFFFL":"N","COMPLFL":"Y","CMCLASX":"(uncoded - no WHO-DD therapeutic class in source)"},{"STUDYID":"CDISCPILOT01","USUBJID":"01-701-1130","CMSEQ":22,"CMTRT":"CALCIUM","CMINDC":"PROPHYLAXIS OR NON-THERAPEUTIC USE","CMDOSE":1,"CMDOSU":"TABLET","CMROUTE":"ORAL","ASTDT":null,"AENDT":null,"ASTDY":null,"AOCCFL":null,"TRTP":"Placebo","TRT01P":"Placebo","TRT01PN":null,"TRT01A":"Placebo","SITEGR1":900,"SITEID":701,"TRTSDT":"2014-02-15","TRTEDT":"2014-08-16","ITTFL":"Y","SAFFL":"Y","EFFFL":"N","COMPLFL":"Y","CMCLASX":"(uncoded - no WHO-DD therapeutic class in source)"},{"STUDYID":"CDISCPILOT01","USUBJID":"01-701-1130","CMSEQ":27,"CMTRT":"CALCIUM","CMINDC":"PROPHYLAXIS OR NON-THERAPEUTIC USE","CMDOSE":1,"CMDOSU":"TABLET","CMROUTE":"ORAL","ASTDT":null,"AENDT":null,"ASTDY":null,"AOCCFL":null,"TRTP":"Placebo","TRT01P":"Placebo","TRT01PN":null,"TRT01A":"Placebo","SITEGR1":900,"SITEID":701,"TRTSDT":"2014-02-15","TRTEDT":"2014-08-16","ITTFL":"Y","SAFFL":"Y","EFFFL":"N","COMPLFL":"Y","CMCLASX":"(uncoded - no WHO-DD therapeutic class in source)"},{"STUDYID":"CDISCPILOT01","USUBJID":"01-701-1130","CMSEQ":31,"CMTRT":"CALCIUM","CMINDC":"PROPHYLAXIS OR NON-THERAPEUTIC USE","CMDOSE":1,"CMDOSU":"TABLET","CMROUTE":"ORAL","ASTDT":null,"AENDT":null,"ASTDY":null,"AOCCFL":null,"TRTP":"Placebo","TRT01P":"Placebo","TRT01PN":null,"TRT01A":"Placebo","SITEGR1":900,"SITEID":701,"TRTSDT":"2014-02-15","TRTEDT":"2014-08-16","ITTFL":"Y","SAFFL":"Y","EFFFL":"N","COMPLFL":"Y","CMCLASX":"(uncoded - no WHO-DD therapeutic class in source)"},{"STUDYID":"CDISCPILOT01","USUBJID":"01-701-1130","CMSEQ":35,"CMTRT":"CALCIUM","CMINDC":"PROPHYLAXIS OR NON-THERAPEUTIC USE","CMDOSE":1,"CMDOSU":"TABLET","CMROUTE":"ORAL","ASTDT":null,"AENDT":null,"ASTDY":null,"AOCCFL":null,"TRTP":"Placebo","TRT01P":"Placebo","TRT01PN":null,"TRT01A":"Placebo","SITEGR1":900,"SITEID":701,"TRTSDT":"2014-02-15","TRTEDT":"2014-08-16","ITTFL":"Y","SAFFL":"Y","EFFFL":"N","COMPLFL":"Y","CMCLASX":"(uncoded - no WHO-DD therapeutic class in source)"},{"STUDYID":"CDISCPILOT01","USUBJID":"01-701-1130","CMSEQ":40,"CMTRT":"CALCIUM","CMINDC":"PROPHYLAXIS OR NON-THERAPEUTIC USE","CMDOSE":1,"CMDOSU":"TABLET","CMROUTE":"ORAL","ASTDT":null,"AENDT":null,"ASTDY":null,"AOCCFL":null,"TRTP":"Placebo","TRT01P":"Placebo","TRT01PN":null,"TRT01A":"Placebo","SITEGR1":900,"SITEID":701,"TRTSDT":"2014-02-15","TRTEDT":"2014-08-16","ITTFL":"Y","SAFFL":"Y","EFFFL":"N","COMPLFL":"Y","CMCLASX":"(uncoded - no WHO-DD therapeutic class in source)"},{"STUDYID":"CDISCPILOT01","USUBJID":"01-701-1130","CMSEQ":44,"CMTRT":"CALCIUM","CMINDC":"PROPHYLAXIS OR NON-THERAPEUTIC USE","CMDOSE":1,"CMDOSU":"TABLET","CMROUTE":"ORAL","ASTDT":null,"AENDT":null,"ASTDY":null,"AOCCFL":null,"TRTP":"Placebo","TRT01P":"Placebo","TRT01PN":null,"TRT01A":"Placebo","SITEGR1":900,"SITEID":701,"TRTSDT":"2014-02-15","TRTEDT":"2014-08-16","ITTFL":"Y","SAFFL":"Y","EFFFL":"N","COMPLFL":"Y","CMCLASX":"(uncoded - no WHO-DD therapeutic class in source)"},{"STUDYID":"CDISCPILOT01","USUBJID":"01-701-1130","CMSEQ":48,"CMTRT":"CALCIUM","CMINDC":"PROPHYLAXIS OR NON-THERAPEUTIC USE","CMDOSE":1,"CMDOSU":"TABLET","CMROUTE":"ORAL","ASTDT":null,"AENDT":null,"ASTDY":null,"AOCCFL":null,"TRTP":"Placebo","TRT01P":"Placebo","TRT01PN":null,"TRT01A":"Placebo","SITEGR1":900,"SITEID":701,"TRTSDT":"2014-02-15","TRTEDT":"2014-08-16","ITTFL":"Y","SAFFL":"Y","EFFFL":"N","COMPLFL":"Y","CMCLASX":"(uncoded - no WHO-DD therapeutic class in source)"},{"STUDYID":"CDISCPILOT01","USUBJID":"01-701-1130","CMSEQ":52,"CMTRT":"CALCIUM","CMINDC":"PROPHYLAXIS OR NON-THERAPEUTIC USE","CMDOSE":1,"CMDOSU":"TABLET","CMROUTE":"ORAL","ASTDT":null,"AENDT":null,"ASTDY":null,"AOCCFL":null,"TRTP":"Placebo","TRT01P":"Placebo","TRT01PN":null,"TRT01A":"Placebo","SITEGR1":900,"SITEID":701,"TRTSDT":"2014-02-15","TRTEDT":"2014-08-16","ITTFL":"Y","SAFFL":"Y","EFFFL":"N","COMPLFL":"Y","CMCLASX":"(uncoded - no WHO-DD therapeutic class in source)"},{"STUDYID":"CDISCPILOT01","USUBJID":"01-701-1130","CMSEQ":4,"CMTRT":"EUCERIN CREME","CMINDC":"","CMDOSE":1,"CMDOSU":"VIAL","CMROUTE":"TOPICAL","ASTDT":null,"AENDT":null,"ASTDY":null,"AOCCFL":"Y","TRTP":"Placebo","TRT01P":"Placebo","TRT01PN":null,"TRT01A":"Placebo","SITEGR1":900,"SITEID":701,"TRTSDT":"2014-02-15","TRTEDT":"2014-08-16","ITTFL":"Y","SAFFL":"Y","EFFFL":"N","COMPLFL":"Y","CMCLASX":"(uncoded - no WHO-DD therapeutic class in source)"},{"STUDYID":"CDISCPILOT01","USUBJID":"01-701-1130","CMSEQ":8,"CMTRT":"EUCERIN CREME","CMINDC":"","CMDOSE":1,"CMDOSU":"VIAL","CMROUTE":"TOPICAL","ASTDT":null,"AENDT":null,"ASTDY":null,"AOCCFL":null,"TRTP":"Placebo","TRT01P":"Placebo","TRT01PN":null,"TRT01A":"Placebo","SITEGR1":900,"SITEID":701,"TRTSDT":"2014-02-15","TRTEDT":"2014-08-16","ITTFL":"Y","SAFFL":"Y","EFFFL":"N","COMPLFL":"Y","CMCLASX":"(uncoded - no WHO-DD therapeutic class in source)"},{"STUDYID":"CDISCPILOT01","USUBJID":"01-701-1130","CMSEQ":12,"CMTRT":"EUCERIN CREME","CMINDC":"","CMDOSE":1,"CMDOSU":"VIAL","CMROUTE":"TOPICAL","ASTDT":null,"AENDT":null,"ASTDY":null,"AOCCFL":null,"TRTP":"Placebo","TRT01P":"Placebo","TRT01PN":null,"TRT01A":"Placebo","SITEGR1":900,"SITEID":701,"TRTSDT":"2014-02-15","TRTEDT":"2014-08-16","ITTFL":"Y","SAFFL":"Y","EFFFL":"N","COMPLFL":"Y","CMCLASX":"(uncoded - no WHO-DD therapeutic class in source)"},{"STUDYID":"CDISCPILOT01","USUBJID":"01-701-1130","CMSEQ":16,"CMTRT":"EUCERIN CREME","CMINDC":"","CMDOSE":1,"CMDOSU":"VIAL","CMROUTE":"TOPICAL","ASTDT":null,"AENDT":null,"ASTDY":null,"AOCCFL":null,"TRTP":"Placebo","TRT01P":"Placebo","TRT01PN":null,"TRT01A":"Placebo","SITEGR1":900,"SITEID":701,"TRTSDT":"2014-02-15","TRTEDT":"2014-08-16","ITTFL":"Y","SAFFL":"Y","EFFFL":"N","COMPLFL":"Y","CMCLASX":"(uncoded - no WHO-DD therapeutic class in source)"},{"STUDYID":"CDISCPILOT01","USUBJID":"01-701-1130","CMSEQ":20,"CMTRT":"EUCERIN CREME","CMINDC":"","CMDOSE":1,"CMDOSU":"VIAL","CMROUTE":"TOPICAL","ASTDT":null,"AENDT":null,"ASTDY":null,"AOCCFL":null,"TRTP":"Placebo","TRT01P":"Placebo","TRT01PN":null,"TRT01A":"Placebo","SITEGR1":900,"SITEID":701,"TRTSDT":"2014-02-15","TRTEDT":"2014-08-16","ITTFL":"Y","SAFFL":"Y","EFFFL":"N","COMPLFL":"Y","CMCLASX":"(uncoded - no WHO-DD therapeutic class in source)"},{"STUDYID":"CDISCPILOT01","USUBJID":"01-701-1130","CMSEQ":25,"CMTRT":"EUCERIN CREME","CMINDC":"","CMDOSE":1,"CMDOSU":"VIAL","CMROUTE":"TOPICAL","ASTDT":null,"AENDT":null,"ASTDY":null,"AOCCFL":null,"TRTP":"Placebo","TRT01P":"Placebo","TRT01PN":null,"TRT01A":"Placebo","SITEGR1":900,"SITEID":701,"TRTSDT":"2014-02-15","TRTEDT":"2014-08-16","ITTFL":"Y","SAFFL":"Y","EFFFL":"N","COMPLFL":"Y","CMCLASX":"(uncoded - no WHO-DD therapeutic class in source)"},{"STUDYID":"CDISCPILOT01","USUBJID":"01-701-1130","CMSEQ":30,"CMTRT":"EUCERIN CREME","CMINDC":"","CMDOSE":1,"CMDOSU":"VIAL","CMROUTE":"TOPICAL","ASTDT":null,"AENDT":null,"ASTDY":null,"AOCCFL":null,"TRTP":"Placebo","TRT01P":"Placebo","TRT01PN":null,"TRT01A":"Placebo","SITEGR1":900,"SITEID":701,"TRTSDT":"2014-02-15","TRTEDT":"2014-08-16","ITTFL":"Y","SAFFL":"Y","EFFFL":"N","COMPLFL":"Y","CMCLASX":"(uncoded - no WHO-DD therapeutic class in source)"},{"STUDYID":"CDISCPILOT01","USUBJID":"01-701-1130","CMSEQ":34,"CMTRT":"EUCERIN CREME","CMINDC":"","CMDOSE":1,"CMDOSU":"VIAL","CMROUTE":"TOPICAL","ASTDT":null,"AENDT":null,"ASTDY":null,"AOCCFL":null,"TRTP":"Placebo","TRT01P":"Placebo","TRT01PN":null,"TRT01A":"Placebo","SITEGR1":900,"SITEID":701,"TRTSDT":"2014-02-15","TRTEDT":"2014-08-16","ITTFL":"Y","SAFFL":"Y","EFFFL":"N","COMPLFL":"Y","CMCLASX":"(uncoded - no WHO-DD therapeutic class in source)"},{"STUDYID":"CDISCPILOT01","USUBJID":"01-701-1130","CMSEQ":38,"CMTRT":"EUCERIN CREME","CMINDC":"","CMDOSE":1,"CMDOSU":"VIAL","CMROUTE":"TOPICAL","ASTDT":null,"AENDT":null,"ASTDY":null,"AOCCFL":null,"TRTP":"Placebo","TRT01P":"Placebo","TRT01PN":null,"TRT01A":"Placebo","SITEGR1":900,"SITEID":701,"TRTSDT":"2014-02-15","TRTEDT":"2014-08-16","ITTFL":"Y","SAFFL":"Y","EFFFL":"N","COMPLFL":"Y","CMCLASX":"(uncoded - no WHO-DD therapeutic class in source)"},{"STUDYID":"CDISCPILOT01","USUBJID":"01-701-1130","CMSEQ":43,"CMTRT":"EUCERIN CREME","CMINDC":"","CMDOSE":1,"CMDOSU":"VIAL","CMROUTE":"TOPICAL","ASTDT":null,"AENDT":null,"ASTDY":null,"AOCCFL":null,"TRTP":"Placebo","TRT01P":"Placebo","TRT01PN":null,"TRT01A":"Placebo","SITEGR1":900,"SITEID":701,"TRTSDT":"2014-02-15","TRTEDT":"2014-08-16","ITTFL":"Y","SAFFL":"Y","EFFFL":"N","COMPLFL":"Y","CMCLASX":"(uncoded - no WHO-DD therapeutic class in source)"},{"STUDYID":"CDISCPILOT01","USUBJID":"01-701-1130","CMSEQ":47,"CMTRT":"EUCERIN CREME","CMINDC":"","CMDOSE":1,"CMDOSU":"VIAL","CMROUTE":"TOPICAL","ASTDT":null,"AENDT":null,"ASTDY":null,"AOCCFL":null,"TRTP":"Placebo","TRT01P":"Placebo","TRT01PN":null,"TRT01A":"Placebo","SITEGR1":900,"SITEID":701,"TRTSDT":"2014-02-15","TRTEDT":"2014-08-16","ITTFL":"Y","SAFFL":"Y","EFFFL":"N","COMPLFL":"Y","CMCLASX":"(uncoded - no WHO-DD therapeutic class in source)"},{"STUDYID":"CDISCPILOT01","USUBJID":"01-701-1130","CMSEQ":51,"CMTRT":"EUCERIN CREME","CMINDC":"","CMDOSE":1,"CMDOSU":"VIAL","CMROUTE":"TOPICAL","ASTDT":null,"AENDT":null,"ASTDY":null,"AOCCFL":null,"TRTP":"Placebo","TRT01P":"Placebo","TRT01PN":null,"TRT01A":"Placebo","SITEGR1":900,"SITEID":701,"TRTSDT":"2014-02-15","TRTEDT":"2014-08-16","ITTFL":"Y","SAFFL":"Y","EFFFL":"N","COMPLFL":"Y","CMCLASX":"(uncoded - no WHO-DD therapeutic class in source)"},{"STUDYID":"CDISCPILOT01","USUBJID":"01-701-1130","CMSEQ":55,"CMTRT":"EUCERIN CREME","CMINDC":"","CMDOSE":1,"CMDOSU":"VIAL","CMROUTE":"TOPICAL","ASTDT":null,"AENDT":null,"ASTDY":null,"AOCCFL":null,"TRTP":"Placebo","TRT01P":"Placebo","TRT01PN":null,"TRT01A":"Placebo","SITEGR1":900,"SITEID":701,"TRTSDT":"2014-02-15","TRTEDT":"2014-08-16","ITTFL":"Y","SAFFL":"Y","EFFFL":"N","COMPLFL":"Y","CMCLASX":"(uncoded - no WHO-DD therapeutic class in source)"},{"STUDYID":"CDISCPILOT01","USUBJID":"01-701-1130","CMSEQ":2,"CMTRT":"MULTIVITAMINS","CMINDC":"PROPHYLAXIS OR NON-THERAPEUTIC USE","CMDOSE":4,"CMDOSU":"TABLET","CMROUTE":"ORAL","ASTDT":null,"AENDT":null,"ASTDY":null,"AOCCFL":"Y","TRTP":"Placebo","TRT01P":"Placebo","TRT01PN":null,"TRT01A":"Placebo","SITEGR1":900,"SITEID":701,"TRTSDT":"2014-02-15","TRTEDT":"2014-08-16","ITTFL":"Y","SAFFL":"Y","EFFFL":"N","COMPLFL":"Y","CMCLASX":"(uncoded - no WHO-DD therapeutic class in source)"},{"STUDYID":"CDISCPILOT01","USUBJID":"01-701-1130","CMSEQ":6,"CMTRT":"MULTIVITAMINS","CMINDC":"PROPHYLAXIS OR NON-THERAPEUTIC USE","CMDOSE":4,"CMDOSU":"TABLET","CMROUTE":"ORAL","ASTDT":null,"AENDT":null,"ASTDY":null,"AOCCFL":null,"TRTP":"Placebo","TRT01P":"Placebo","TRT01PN":null,"TRT01A":"Placebo","SITEGR1":900,"SITEID":701,"TRTSDT":"2014-02-15","TRTEDT":"2014-08-16","ITTFL":"Y","SAFFL":"Y","EFFFL":"N","COMPLFL":"Y","CMCLASX":"(uncoded - no WHO-DD therapeutic class in source)"},{"STUDYID":"CDISCPILOT01","USUBJID":"01-701-1130","CMSEQ":10,"CMTRT":"MULTIVITAMINS","CMINDC":"PROPHYLAXIS OR NON-THERAPEUTIC USE","CMDOSE":4,"CMDOSU":"TABLET","CMROUTE":"ORAL","ASTDT":null,"AENDT":null,"ASTDY":null,"AOCCFL":null,"TRTP":"Placebo","TRT01P":"Placebo","TRT01PN":null,"TRT01A":"Placebo","SITEGR1":900,"SITEID":701,"TRTSDT":"2014-02-15","TRTEDT":"2014-08-16","ITTFL":"Y","SAFFL":"Y","EFFFL":"N","COMPLFL":"Y","CMCLASX":"(uncoded - no WHO-DD therapeutic class in source)"},{"STUDYID":"CDISCPILOT01","USUBJID":"01-701-1130","CMSEQ":14,"CMTRT":"MULTIVITAMINS","CMINDC":"PROPHYLAXIS OR NON-THERAPEUTIC USE","CMDOSE":4,"CMDOSU":"TABLET","CMROUTE":"ORAL","ASTDT":null,"AENDT":null,"ASTDY":null,"AOCCFL":null,"TRTP":"Placebo","TRT01P":"Placebo","TRT01PN":null,"TRT01A":"Placebo","SITEGR1":900,"SITEID":701,"TRTSDT":"2014-02-15","TRTEDT":"2014-08-16","ITTFL":"Y","SAFFL":"Y","EFFFL":"N","COMPLFL":"Y","CMCLASX":"(uncoded - no WHO-DD therapeutic class in source)"},{"STUDYID":"CDISCPILOT01","USUBJID":"01-701-1130","CMSEQ":18,"CMTRT":"MULTIVITAMINS","CMINDC":"PROPHYLAXIS OR NON-THERAPEUTIC USE","CMDOSE":4,"CMDOSU":"TABLET","CMROUTE":"ORAL","ASTDT":null,"AENDT":null,"ASTDY":null,"AOCCFL":null,"TRTP":"Placebo","TRT01P":"Placebo","TRT01PN":null,"TRT01A":"Placebo","SITEGR1":900,"SITEID":701,"TRTSDT":"2014-02-15","TRTEDT":"2014-08-16","ITTFL":"Y","SAFFL":"Y","EFFFL":"N","COMPLFL":"Y","CMCLASX":"(uncoded - no WHO-DD therapeutic class in source)"},{"STUDYID":"CDISCPILOT01","USUBJID":"01-701-1130","CMSEQ":23,"CMTRT":"MULTIVITAMINS","CMINDC":"PROPHYLAXIS OR NON-THERAPEUTIC USE","CMDOSE":4,"CMDOSU":"TABLET","CMROUTE":"ORAL","ASTDT":null,"AENDT":null,"ASTDY":null,"AOCCFL":null,"TRTP":"Placebo","TRT01P":"Placebo","TRT01PN":null,"TRT01A":"Placebo","SITEGR1":900,"SITEID":701,"TRTSDT":"2014-02-15","TRTEDT":"2014-08-16","ITTFL":"Y","SAFFL":"Y","EFFFL":"N","COMPLFL":"Y","CMCLASX":"(uncoded - no WHO-DD therapeutic class in source)"},{"STUDYID":"CDISCPILOT01","USUBJID":"01-701-1130","CMSEQ":28,"CMTRT":"MULTIVITAMINS","CMINDC":"PROPHYLAXIS OR NON-THERAPEUTIC USE","CMDOSE":4,"CMDOSU":"TABLET","CMROUTE":"ORAL","ASTDT":null,"AENDT":null,"ASTDY":null,"AOCCFL":null,"TRTP":"Placebo","TRT01P":"Placebo","TRT01PN":null,"TRT01A":"Placebo","SITEGR1":900,"SITEID":701,"TRTSDT":"2014-02-15","TRTEDT":"2014-08-16","ITTFL":"Y","SAFFL":"Y","EFFFL":"N","COMPLFL":"Y","CMCLASX":"(uncoded - no WHO-DD therapeutic class in source)"},{"STUDYID":"CDISCPILOT01","USUBJID":"01-701-1130","CMSEQ":32,"CMTRT":"MULTIVITAMINS","CMINDC":"PROPHYLAXIS OR NON-THERAPEUTIC USE","CMDOSE":4,"CMDOSU":"TABLET","CMROUTE":"ORAL","ASTDT":null,"AENDT":null,"ASTDY":null,"AOCCFL":null,"TRTP":"Placebo","TRT01P":"Placebo","TRT01PN":null,"TRT01A":"Placebo","SITEGR1":900,"SITEID":701,"TRTSDT":"2014-02-15","TRTEDT":"2014-08-16","ITTFL":"Y","SAFFL":"Y","EFFFL":"N","COMPLFL":"Y","CMCLASX":"(uncoded - no WHO-DD therapeutic class in source)"},{"STUDYID":"CDISCPILOT01","USUBJID":"