[{"STUDYID":"CDISCPILOT01","USUBJID":"01-701-1015","NDOSE":3,"PARAMCD":"TRTDUR","AVAL":182,"PARAM":"Duration of Exposure (days)","EXDURGR1":">168 days","TRTP":"Placebo","TRT01P":"Placebo","TRT01PN":null,"TRT01A":"Placebo","SITEGR1":900,"SITEID":701,"TRTSDT":"2014-01-02","TRTEDT":"2014-07-02","ITTFL":"Y","SAFFL":"Y","EFFFL":"N","COMPLFL":"Y"},{"STUDYID":"CDISCPILOT01","USUBJID":"01-701-1015","NDOSE":3,"PARAMCD":"CUMDOSE","AVAL":0,"PARAM":"Cumulative Dose (mg)","EXDURGR1":">168 days","TRTP":"Placebo","TRT01P":"Placebo","TRT01PN":null,"TRT01A":"Placebo","SITEGR1":900,"SITEID":701,"TRTSDT":"2014-01-02","TRTEDT":"2014-07-02","ITTFL":"Y","SAFFL":"Y","EFFFL":"N","COMPLFL":"Y"},{"STUDYID":"CDISCPILOT01","USUBJID":"01-701-1015","NDOSE":3,"PARAMCD":"AVGDD","AVAL":0,"PARAM":"Average Daily Dose (mg/day)","EXDURGR1":">168 days","TRTP":"Placebo","TRT01P":"Placebo","TRT01PN":null,"TRT01A":"Placebo","SITEGR1":900,"SITEID":701,"TRTSDT":"2014-01-02","TRTEDT":"2014-07-02","ITTFL":"Y","SAFFL":"Y","EFFFL":"N","COMPLFL":"Y"},{"STUDYID":"CDISCPILOT01","USUBJID":"01-701-1023","NDOSE":2,"PARAMCD":"TRTDUR","AVAL":28,"PARAM":"Duration of Exposure (days)","EXDURGR1":"<=30 days","TRTP":"Placebo","TRT01P":"Placebo","TRT01PN":null,"TRT01A":"Placebo","SITEGR1":900,"SITEID":701,"TRTSDT":"2012-08-05","TRTEDT":"2012-09-01","ITTFL":"Y","SAFFL":"Y","EFFFL":"N","COMPLFL":"N"},{"STUDYID":"CDISCPILOT01","USUBJID":"01-701-1023","NDOSE":2,"PARAMCD":"CUMDOSE","AVAL":0,"PARAM":"Cumulative Dose (mg)","EXDURGR1":"<=30 days","TRTP":"Placebo","TRT01P":"Placebo","TRT01PN":null,"TRT01A":"Placebo","SITEGR1":900,"SITEID":701,"TRTSDT":"2012-08-05","TRTEDT":"2012-09-01","ITTFL":"Y","SAFFL":"Y","EFFFL":"N","COMPLFL":"N"},{"STUDYID":"CDISCPILOT01","USUBJID":"01-701-1023","NDOSE":2,"PARAMCD":"AVGDD","AVAL":0,"PARAM":"Average Daily Dose (mg/day)","EXDURGR1":"<=30 days","TRTP":"Placebo","TRT01P":"Placebo","TRT01PN":null,"TRT01A":"Placebo","SITEGR1":900,"SITEID":701,"TRTSDT":"2012-08-05","TRTEDT":"2012-09-01","ITTFL":"Y","SAFFL":"Y","EFFFL":"N","COMPLFL":"N"},{"STUDYID":"CDISCPILOT01","USUBJID":"01-701-1028","NDOSE":3,"PARAMCD":"TRTDUR","AVAL":180,"PARAM":"Duration of Exposure (days)","EXDURGR1":">168 days","TRTP":"Xanomeline High Dose","TRT01P":"Xanomeline High Dose","TRT01PN":null,"TRT01A":"Xanomeline High Dose","SITEGR1":900,"SITEID":701,"TRTSDT":"2013-07-19","TRTEDT":"2014-01-14","ITTFL":"Y","SAFFL":"Y","EFFFL":"N","COMPLFL":"Y"},{"STUDYID":"CDISCPILOT01","USUBJID":"01-701-1028","NDOSE":3,"PARAMCD":"CUMDOSE","AVAL":189,"PARAM":"Cumulative Dose (mg)","EXDURGR1":">168 days","TRTP":"Xanomeline High Dose","TRT01P":"Xanomeline High Dose","TRT01PN":null,"TRT01A":"Xanomeline High Dose","SITEGR1":900,"SITEID":701,"TRTSDT":"2013-07-19","TRTEDT":"2014-01-14","ITTFL":"Y","SAFFL":"Y","EFFFL":"N","COMPLFL":"Y"},{"STUDYID":"CDISCPILOT01","USUBJID":"01-701-1028","NDOSE":3,"PARAMCD":"AVGDD","AVAL":1.05,"PARAM":"Average Daily Dose (mg/day)","EXDURGR1":">168 days","TRTP":"Xanomeline High Dose","TRT01P":"Xanomeline High Dose","TRT01PN":null,"TRT01A":"Xanomeline High Dose","SITEGR1":900,"SITEID":701,"TRTSDT":"2013-07-19","TRTEDT":"2014-01-14","ITTFL":"Y","SAFFL":"Y","EFFFL":"N","COMPLFL":"Y"},{"STUDYID":"CDISCPILOT01","USUBJID":"01-701-1033","NDOSE":1,"PARAMCD":"TRTDUR","AVAL":14,"PARAM":"Duration of Exposure (days)","EXDURGR1":"<=30 days","TRTP":"Xanomeline Low Dose","TRT01P":"Xanomeline Low Dose","TRT01PN":null,"TRT01A":"Xanomeline Low Dose","SITEGR1":900,"SITEID":701,"TRTSDT":"2014-03-18","TRTEDT":"2014-03-31","ITTFL":"Y","SAFFL":"Y","EFFFL":"N","COMPLFL":"N"},{"STUDYID":"CDISCPILOT01","USUBJID":"01-701-1033","NDOSE":1,"PARAMCD":"CUMDOSE","AVAL":54,"PARAM":"Cumulative Dose (mg)","EXDURGR1":"<=30 days","TRTP":"Xanomeline Low Dose","TRT01P":"Xanomeline Low Dose","TRT01PN":null,"TRT01A":"Xanomeline Low Dose","SITEGR1":900,"SITEID":701,"TRTSDT":"2014-03-18","TRTEDT":"2014-03-31","ITTFL":"Y","SAFFL":"Y","EFFFL":"N","COMPLFL":"N"},{"STUDYID":"CDISCPILOT01","USUBJID":"01-701-1033","NDOSE":1,"PARAMCD":"AVGDD","AVAL":3.8571,"PARAM":"Average Daily Dose (mg/day)","EXDURGR1":"<=30 days","TRTP":"Xanomeline Low Dose","TRT01P":"Xanomeline Low Dose","TRT01PN":null,"TRT01A":"Xanomeline Low Dose","SITEGR1":900,"SITEID":701,"TRTSDT":"2014-03-18","TRTEDT":"2014-03-31","ITTFL":"Y","SAFFL":"Y","EFFFL":"N","COMPLFL":"N"},{"STUDYID":"CDISCPILOT01","USUBJID":"01-701-1034","NDOSE":3,"PARAMCD":"TRTDUR","AVAL":183,"PARAM":"Duration of Exposure (days)","EXDURGR1":">168 days","TRTP":"Xanomeline High Dose","TRT01P":"Xanomeline High Dose","TRT01PN":null,"TRT01A":"Xanomeline High Dose","SITEGR1":900,"SITEID":701,"TRTSDT":"2014-07-01","TRTEDT":"2014-12-30","ITTFL":"Y","SAFFL":"Y","EFFFL":"N","COMPLFL":"Y"},{"STUDYID":"CDISCPILOT01","USUBJID":"01-701-1034","NDOSE":3,"PARAMCD":"CUMDOSE","AVAL":189,"PARAM":"Cumulative Dose (mg)","EXDURGR1":">168 days","TRTP":"Xanomeline High Dose","TRT01P":"Xanomeline High Dose","TRT01PN":null,"TRT01A":"Xanomeline High Dose","SITEGR1":900,"SITEID":701,"TRTSDT":"2014-07-01","TRTEDT":"2014-12-30","ITTFL":"Y","SAFFL":"Y","EFFFL":"N","COMPLFL":"Y"},{"STUDYID":"CDISCPILOT01","USUBJID":"01-701-1034","NDOSE":3,"PARAMCD":"AVGDD","AVAL":1.0328,"PARAM":"Average Daily Dose (mg/day)","EXDURGR1":">168 days","TRTP":"Xanomeline High Dose","TRT01P":"Xanomeline High Dose","TRT01PN":null,"TRT01A":"Xanomeline High Dose","SITEGR1":900,"SITEID":701,"TRTSDT":"2014-07-01","TRTEDT":"2014-12-30","ITTFL":"Y","SAFFL":"Y","EFFFL":"N","COMPLFL":"Y"},{"STUDYID":"CDISCPILOT01","USUBJID":"01-701-1047","NDOSE":2,"PARAMCD":"TRTDUR","AVAL":26,"PARAM":"Duration of Exposure (days)","EXDURGR1":"<=30 days","TRTP":"Placebo","TRT01P":"Placebo","TRT01PN":null,"TRT01A":"Placebo","SITEGR1":900,"SITEID":701,"TRTSDT":"2013-02-12","TRTEDT":"2013-03-09","ITTFL":"Y","SAFFL":"Y","EFFFL":"N","COMPLFL":"N"},{"STUDYID":"CDISCPILOT01","USUBJID":"01-701-1047","NDOSE":2,"PARAMCD":"CUMDOSE","AVAL":0,"PARAM":"Cumulative Dose (mg)","EXDURGR1":"<=30 days","TRTP":"Placebo","TRT01P":"Placebo","TRT01PN":null,"TRT01A":"Placebo","SITEGR1":900,"SITEID":701,"TRTSDT":"2013-02-12","TRTEDT":"2013-03-09","ITTFL":"Y","SAFFL":"Y","EFFFL":"N","COMPLFL":"N"},{"STUDYID":"CDISCPILOT01","USUBJID":"01-701-1047","NDOSE":2,"PARAMCD":"AVGDD","AVAL":0,"PARAM":"Average Daily Dose (mg/day)","EXDURGR1":"<=30 days","TRTP":"Placebo","TRT01P":"Placebo","TRT01PN":null,"TRT01A":"Placebo","SITEGR1":900,"SITEID":701,"TRTSDT":"2013-02-12","TRTEDT":"2013-03-09","ITTFL":"Y","SAFFL":"Y","EFFFL":"N","COMPLFL":"N"},{"STUDYID":"CDISCPILOT01","USUBJID":"01-701-1097","NDOSE":3,"PARAMCD":"TRTDUR","AVAL":190,"PARAM":"Duration of Exposure (days)","EXDURGR1":">168 days","TRTP":"Xanomeline Low Dose","TRT01P":"Xanomeline Low Dose","TRT01PN":null,"TRT01A":"Xanomeline Low Dose","SITEGR1":900,"SITEID":701,"TRTSDT":"2014-01-01","TRTEDT":"2014-07-09","ITTFL":"Y","SAFFL":"Y","EFFFL":"N","COMPLFL":"Y"},{"STUDYID":"CDISCPILOT01","USUBJID":"01-701-1097","NDOSE":3,"PARAMCD":"CUMDOSE","AVAL":162,"PARAM":"Cumulative Dose (mg)","EXDURGR1":">168 days","TRTP":"Xanomeline Low Dose","TRT01P":"Xanomeline Low Dose","TRT01PN":null,"TRT01A":"Xanomeline Low Dose","SITEGR1":900,"SITEID":701,"TRTSDT":"2014-01-01","TRTEDT":"2014-07-09","ITTFL":"Y","SAFFL":"Y","EFFFL":"N","COMPLFL":"Y"},{"STUDYID":"CDISCPILOT01","USUBJID":"01-701-1097","NDOSE":3,"PARAMCD":"AVGDD","AVAL":0.8526,"PARAM":"Average Daily Dose (mg/day)","EXDURGR1":">168 days","TRTP":"Xanomeline Low Dose","TRT01P":"Xanomeline Low Dose","TRT01PN":null,"TRT01A":"Xanomeline Low Dose","SITEGR1":900,"SITEID":701,"TRTSDT":"2014-01-01","TRTEDT":"2014-07-09","ITTFL":"Y","SAFFL":"Y","EFFFL":"N","COMPLFL":"Y"},{"STUDYID":"CDISCPILOT01","USUBJID":"01-701-1111","NDOSE":1,"PARAMCD":"TRTDUR","AVAL":10,"PARAM":"Duration of Exposure (days)","EXDURGR1":"<=30 days","TRTP":"Xanomeline Low Dose","TRT01P":"Xanomeline Low Dose","TRT01PN":null,"TRT01A":"Xanomeline Low Dose","SITEGR1":900,"SITEID":701,"TRTSDT":"2012-09-07","TRTEDT":"2012-09-16","ITTFL":"Y","SAFFL":"Y","EFFFL":"N","COMPLFL":"N"},{"STUDYID":"CDISCPILOT01","USUBJID":"01-701-1111","NDOSE":1,"PARAMCD":"CUMDOSE","AVAL":54,"PARAM":"Cumulative Dose (mg)","EXDURGR1":"<=30 days","TRTP":"Xanomeline Low Dose","TRT01P":"Xanomeline Low Dose","TRT01PN":null,"TRT01A":"Xanomeline Low Dose","SITEGR1":900,"SITEID":701,"TRTSDT":"2012-09-07","TRTEDT":"2012-09-16","ITTFL":"Y","SAFFL":"Y","EFFFL":"N","COMPLFL":"N"},{"STUDYID":"CDISCPILOT01","USUBJID":"01-701-1111","NDOSE":1,"PARAMCD":"AVGDD","AVAL":5.4,"PARAM":"Average Daily Dose (mg/day)","EXDURGR1":"<=30 days","TRTP":"Xanomeline Low Dose","TRT01P":"Xanomeline Low Dose","TRT01PN":null,"TRT01A":"Xanomeline Low Dose","SITEGR1":900,"SITEID":701,"TRTSDT":"2012-09-07","TRTEDT":"2012-09-16","ITTFL":"Y","SAFFL":"Y","EFFFL":"N","COMPLFL":"N"},{"STUDYID":"CDISCPILOT01","USUBJID":"01-701-1115","NDOSE":2,"PARAMCD":"TRTDUR","AVAL":55,"PARAM":"Duration of Exposure (days)","EXDURGR1":"31-90 days","TRTP":"Xanomeline Low Dose","TRT01P":"Xanomeline Low Dose","TRT01PN":null,"TRT01A":"Xanomeline Low Dose","SITEGR1":900,"SITEID":701,"TRTSDT":"2012-11-30","TRTEDT":"2013-01-23","ITTFL":"Y","SAFFL":"Y","EFFFL":"N","COMPLFL":"N"},{"STUDYID":"CDISCPILOT01","USUBJID":"01-701-1115","NDOSE":2,"PARAMCD":"CUMDOSE","AVAL":108,"PARAM":"Cumulative Dose (mg)","EXDURGR1":"31-90 days","TRTP":"Xanomeline Low Dose","TRT01P":"Xanomeline Low Dose","TRT01PN":null,"TRT01A":"Xanomeline Low Dose","SITEGR1":900,"SITEID":701,"TRTSDT":"2012-11-30","TRTEDT":"2013-01-23","ITTFL":"Y","SAFFL":"Y","EFFFL":"N","COMPLFL":"N"},{"STUDYID":"CDISCPILOT01","USUBJID":"01-701-1115","NDOSE":2,"PARAMCD":"AVGDD","AVAL":1.9636,"PARAM":"Average Daily Dose (mg/day)","EXDURGR1":"31-90 days","TRTP":"Xanomeline Low Dose","TRT01P":"Xanomeline Low Dose","TRT01PN":null,"TRT01A":"Xanomeline Low Dose","SITEGR1":900,"SITEID":701,"TRTSDT":"2012-11-30","TRTEDT":"2013-01-23","ITTFL":"Y","SAFFL":"Y","EFFFL":"N","COMPLFL":"N"},{"STUDYID":"CDISCPILOT01","USUBJID":"01-701-1118","NDOSE":3,"PARAMCD":"TRTDUR","AVAL":182,"PARAM":"Duration of Exposure (days)","EXDURGR1":">168 days","TRTP":"Placebo","TRT01P":"Placebo","TRT01PN":null,"TRT01A":"Placebo","SITEGR1":900,"SITEID":701,"TRTSDT":"2014-03-12","TRTEDT":"2014-09-09","ITTFL":"Y","SAFFL":"Y","EFFFL":"N","COMPLFL":"Y"},{"STUDYID":"CDISCPILOT01","USUBJID":"01-701-1118","NDOSE":3,"PARAMCD":"CUMDOSE","AVAL":0,"PARAM":"Cumulative Dose (mg)","EXDURGR1":">168 days","TRTP":"Placebo","TRT01P":"Placebo","TRT01PN":null,"TRT01A":"Placebo","SITEGR1":900,"SITEID":701,"TRTSDT":"2014-03-12","TRTEDT":"2014-09-09","ITTFL":"Y","SAFFL":"Y","EFFFL":"N","COMPLFL":"Y"},{"STUDYID":"CDISCPILOT01","USUBJID":"01-701-1118","NDOSE":3,"PARAMCD":"AVGDD","AVAL":0,"PARAM":"Average Daily Dose (mg/day)","EXDURGR1":">168 days","TRTP":"Placebo","TRT01P":"Placebo","TRT01PN":null,"TRT01A":"Placebo","SITEGR1":900,"SITEID":701,"TRTSDT":"2014-03-12","TRTEDT":"2014-09-09","ITTFL":"Y","SAFFL":"Y","EFFFL":"N","COMPLFL":"Y"},{"STUDYID":"CDISCPILOT01","USUBJID":"01-701-1130","NDOSE":3,"PARAMCD":"TRTDUR","AVAL":183,"PARAM":"Duration of Exposure (days)","EXDURGR1":">168 days","TRTP":"Placebo","TRT01P":"Placebo","TRT01PN":null,"TRT01A":"Placebo","SITEGR1":900,"SITEID":701,"TRTSDT":"2014-02-15","TRTEDT":"2014-08-16","ITTFL":"Y","SAFFL":"Y","EFFFL":"N","COMPLFL":"Y"},{"STUDYID":"CDISCPILOT01","USUBJID":"01-701-1130","NDOSE":3,"PARAMCD":"CUMDOSE","AVAL":0,"PARAM":"Cumulative Dose (mg)","EXDURGR1":">168 days","TRTP":"Placebo","TRT01P":"Placebo","TRT01PN":null,"TRT01A":"Placebo","SITEGR1":900,"SITEID":701,"TRTSDT":"2014-02-15","TRTEDT":"2014-08-16","ITTFL":"Y","SAFFL":"Y","EFFFL":"N","COMPLFL":"Y"},{"STUDYID":"CDISCPILOT01","USUBJID":"01-701-1130","NDOSE":3,"PARAMCD":"AVGDD","AVAL":0,"PARAM":"Average Daily Dose (mg/day)","EXDURGR1":">168 days","TRTP":"Placebo","TRT01P":"Placebo","TRT01PN":null,"TRT01A":"Placebo","SITEGR1":900,"SITEID":701,"TRTSDT":"2014-02-15","TRTEDT":"2014-08-16","ITTFL":"Y","SAFFL":"Y","EFFFL":"N","COMPLFL":"Y"},{"STUDYID":"CDISCPILOT01","USUBJID":"01-701-1133","NDOSE":3,"PARAMCD":"TRTDUR","AVAL":183,"PARAM":"Duration of Exposure (days)","EXDURGR1":">168 days","TRTP":"Xanomeline High Dose","TRT01P":"Xanomeline High Dose","TRT01PN":null,"TRT01A":"Xanomeline High Dose","SITEGR1":900,"SITEID":701,"TRTSDT":"2012-10-28","TRTEDT":"2013-04-28","ITTFL":"Y","SAFFL":"Y","EFFFL":"N","COMPLFL":"Y"},{"STUDYID":"CDISCPILOT01","USUBJID":"01-701-1133","NDOSE":3,"PARAMCD":"CUMDOSE","AVAL":189,"PARAM":"Cumulative Dose (mg)","EXDURGR1":">168 days","TRTP":"Xanomeline High Dose","TRT01P":"Xanomeline High Dose","TRT01PN":null,"TRT01A":"Xanomeline High Dose","SITEGR1":900,"SITEID":701,"TRTSDT":"2012-10-28","TRTEDT":"2013-04-28","ITTFL":"Y","SAFFL":"Y","EFFFL":"N","COMPLFL":"Y"},{"STUDYID":"CDISCPILOT01","USUBJID":"01-701-1133","NDOSE":3,"PARAMCD":"AVGDD","AVAL":1.0328,"PARAM":"Average Daily Dose (mg/day)","EXDURGR1":">168 days","TRTP":"Xanomeline High Dose","TRT01P":"Xanomeline High Dose","TRT01PN":null,"TRT01A":"Xanomeline High Dose","SITEGR1":900,"SITEID":701,"TRTSDT":"2012-10-28","TRTEDT":"2013-04-28","ITTFL":"Y","SAFFL":"Y","EFFFL":"N","COMPLFL":"Y"},{"STUDYID":"CDISCPILOT01","USUBJID":"01-701-1146","NDOSE":2,"PARAMCD":"TRTDUR","AVAL":38,"PARAM":"Duration of Exposure (days)","EXDURGR1":"31-90 days","TRTP":"Xanomeline High Dose","TRT01P":"Xanomeline High Dose","TRT01PN":null,"TRT01A":"Xanomeline High Dose","SITEGR1":900,"SITEID":701,"TRTSDT":"2013-05-20","TRTEDT":"2013-06-26","ITTFL":"Y","SAFFL":"Y","EFFFL":"N","COMPLFL":"N"},{"STUDYID":"CDISCPILOT01","USUBJID":"01-701-1146","NDOSE":2,"PARAMCD":"CUMDOSE","AVAL":135,"PARAM":"Cumulative Dose (mg)","EXDURGR1":"31-90 days","TRTP":"Xanomeline High Dose","TRT01P":"Xanomeline High Dose","TRT01PN":null,"TRT01A":"Xanomeline High Dose","SITEGR1":900,"SITEID":701,"TRTSDT":"2013-05-20","TRTEDT":"2013-06-26","ITTFL":"Y","SAFFL":"Y","EFFFL":"N","COMPLFL":"N"},{"STUDYID":"CDISCPILOT01","USUBJID":"01-701-1146","NDOSE":2,"PARAMCD":"AVGDD","AVAL":3.5526,"PARAM":"Average Daily Dose (mg/day)","EXDURGR1":"31-90 days","TRTP":"Xanomeline High Dose","TRT01P":"Xanomeline High Dose","TRT01PN":null,"TRT01A":"Xanomeline High Dose","SITEGR1":900,"SITEID":701,"TRTSDT":"2013-05-20","TRTEDT":"2013-06-26","ITTFL":"Y","SAFFL":"Y","EFFFL":"N","COMPLFL":"N"},{"STUDYID":"CDISCPILOT01","USUBJID":"01-701-1148","NDOSE":3,"PARAMCD":"TRTDUR","AVAL":182,"PARAM":"Duration of Exposure (days)","EXDURGR1":">168 days","TRTP":"Xanomeline High Dose","TRT01P":"Xanomeline High Dose","TRT01PN":null,"TRT01A":"Xanomeline High Dose","SITEGR1":900,"SITEID":701,"TRTSDT":"2013-08-23","TRTEDT":"2014-02-20","ITTFL":"Y","SAFFL":"Y","EFFFL":"N","COMPLFL":"Y"},{"STUDYID":"CDISCPILOT01","USUBJID":"01-701-1148","NDOSE":3,"PARAMCD":"CUMDOSE","AVAL":189,"PARAM":"Cumulative Dose (mg)","EXDURGR1":">168 days","TRTP":"Xanomeline High Dose","TRT01P":"Xanomeline High Dose","TRT01PN":null,"TRT01A":"Xanomeline High Dose","SITEGR1":900,"SITEID":701,"TRTSDT":"2013-08-23","TRTEDT":"2014-02-20","ITTFL":"Y","SAFFL":"Y","EFFFL":"N","COMPLFL":"Y"},{"STUDYID":"CDISCPILOT01","USUBJID":"01-701-1148","NDOSE":3,"PARAMCD":"AVGDD","AVAL":1.0385,"PARAM":"Average Daily Dose (mg/day)","EXDURGR1":">168 days","TRTP":"Xanomeline High Dose","TRT01P":"Xanomeline High Dose","TRT01PN":null,"TRT01A":"Xanomeline High Dose","SITEGR1":900,"SITEID":701,"TRTSDT":"2013-08-23","TRTEDT":"2014-02-20","ITTFL":"Y","SAFFL":"Y","EFFFL":"N","COMPLFL":"Y"},{"STUDYID":"CDISCPILOT01","USUBJID":"01-701-1153","NDOSE":3,"PARAMCD":"TRTDUR","AVAL":175,"PARAM":"Duration of Exposure (days)","EXDURGR1":">168 days","TRTP":"Placebo","TRT01P":"Placebo","TRT01PN":null,"TRT01A":"Placebo","SITEGR1":900,"SITEID":701,"TRTSDT":"2013-09-23","TRTEDT":"2014-03-16","ITTFL":"Y","SAFFL":"Y","EFFFL":"N","COMPLFL":"Y"},{"STUDYID":"CDISCPILOT01","USUBJID":"01-701-1153","NDOSE":3,"PARAMCD":"CUMDOSE","AVAL":0,"PARAM":"Cumulative Dose (mg)","EXDURGR1":">168 days","TRTP":"Placebo","TRT01P":"Placebo","TRT01PN":null,"TRT01A":"Placebo","SITEGR1":900,"SITEID":701,"TRTSDT":"2013-09-23","TRTEDT":"2014-03-16","ITTFL":"Y","SAFFL":"Y","EFFFL":"N","COMPLFL":"Y"},{"STUDYID":"CDISCPILOT01","USUBJID":"01-701-1153","NDOSE":3,"PARAMCD":"AVGDD","AVAL":0,"PARAM":"Average Daily Dose (mg/day)","EXDURGR1":">168 days","TRTP":"Placebo","TRT01P":"Placebo","TRT01PN":null,"TRT01A":"Placebo","SITEGR1":900,"SITEID":701,"TRTSDT":"2013-09-23","TRTEDT":"2014-03-16","ITTFL":"Y","SAFFL":"Y","EFFFL":"N","COMPLFL":"Y"},{"STUDYID":"CDISCPILOT01","USUBJID":"01-701-1180","NDOSE":2,"PARAMCD":"TRTDUR","AVAL":35,"PARAM":"Duration of Exposure (days)","EXDURGR1":"31-90 days","TRTP":"Xanomeline High Dose","TRT01P":"Xanomeline High Dose","TRT01PN":null,"TRT01A":"Xanomeline High Dose","SITEGR1":900,"SITEID":701,"TRTSDT":"2013-02-12","TRTEDT":"2013-03-18","ITTFL":"Y","SAFFL":"Y","EFFFL":"N","COMPLFL":"N"},{"STUDYID":"CDISCPILOT01","USUBJID":"01-701-1180","NDOSE":2,"PARAMCD":"CUMDOSE","AVAL":135,"PARAM":"Cumulative Dose (mg)","EXDURGR1":"31-90 days","TRTP":"Xanomeline High Dose","TRT01P":"Xanomeline High Dose","TRT01PN":null,"TRT01A":"Xanomeline High Dose","SITEGR1":900,"SITEID":701,"TRTSDT":"2013-02-12","TRTEDT":"2013-03-18","ITTFL":"Y","SAFFL":"Y","EFFFL":"N","COMPLFL":"N"},{"STUDYID":"CDISCPILOT01","USUBJID":"01-701-1180","NDOSE":2,"PARAMCD":"AVGDD","AVAL":3.8571,"PARAM":"Average Daily Dose (mg/day)","EXDURGR1":"31-90 days","TRTP":"Xanomeline High Dose","TRT01P":"Xanomeline High Dose","TRT01PN":null,"TRT01A":"Xanomeline High Dose","SITEGR1":900,"SITEID":701,"TRTSDT":"2013-02-12","TRTEDT":"2013-03-18","ITTFL":"Y","SAFFL":"Y","EFFFL":"N","COMPLFL":"N"},{"STUDYID":"CDISCPILOT01","USUBJID":"01-701-1181","NDOSE":1,"PARAMCD":"TRTDUR","AVAL":5,"PARAM":"Duration of Exposure (days)","EXDURGR1":"<=30 days","TRTP":"Xanomeline High Dose","TRT01P":"Xanomeline High Dose","TRT01PN":null,"TRT01A":"Xanomeline Low Dose","SITEGR1":900,"SITEID":701,"TRTSDT":"2013-12-05","TRTEDT":"2013-12-09","ITTFL":"Y","SAFFL":"Y","EFFFL":"N","COMPLFL":"N"},{"STUDYID":"CDISCPILOT01","USUBJID":"01-701-1181","NDOSE":1,"PARAMCD":"CUMDOSE","AVAL":54,"PARAM":"Cumulative Dose (mg)","EXDURGR1":"<=30 days","TRTP":"Xanomeline High Dose","TRT01P":"Xanomeline High Dose","TRT01PN":null,"TRT01A":"Xanomeline Low Dose","SITEGR1":900,"SITEID":701,"TRTSDT":"2013-12-05","TRTEDT":"2013-12-09","ITTFL":"Y","SAFFL":"Y","EFFFL":"N","COMPLFL":"N"},{"STUDYID":"CDISCPILOT01","USUBJID":"01-701-1181","NDOSE":1,"PARAMCD":"AVGDD","AVAL":10.8,"PARAM":"Average Daily Dose (mg/day)","EXDURGR1":"<=30 days","TRTP":"Xanomeline High Dose","TRT01P":"Xanomeline High Dose","TRT01PN":null,"TRT01A":"Xanomeline Low Dose","SITEGR1":900,"SITEID":701,"TRTSDT":"2013-12-05","TRTEDT":"2013-12-09","ITTFL":"Y","SAFFL":"Y","EFFFL":"N","COMPLFL":"N"},{"STUDYID":"CDISCPILOT01","USUBJID":"01-701-1188","NDOSE":2,"PARAMCD":"TRTDUR","AVAL":38,"PARAM":"Duration of Exposure (days)","EXDURGR1":"31-90 days","TRTP":"Xanomeline Low Dose","TRT01P":"Xanomeline Low Dose","TRT01PN":null,"TRT01A":"Xanomeline Low Dose","SITEGR1":900,"SITEID":701,"TRTSDT":"2013-02-15","TRTEDT":"2013-03-24","ITTFL":"Y","SAFFL":"Y","EFFFL":"N","COMPLFL":"N"},{"STUDYID":"CDISCPILOT01","USUBJID":"01-701-1188","NDOSE":2,"PARAMCD":"CUMDOSE","AVAL":108,"PARAM":"Cumulative Dose (mg)","EXDURGR1":"31-90 days","TRTP":"Xanomeline Low Dose","TRT01P":"Xanomeline Low Dose","TRT01PN":null,"TRT01A":"Xanomeline Low Dose","SITEGR1":900,"SITEID":701,"TRTSDT":"2013-02-15","TRTEDT":"2013-03-24","ITTFL":"Y","SAFFL":"Y","EFFFL":"N","COMPLFL":"N"},{"STUDYID":"CDISCPILOT01","USUBJID":"01-701-1188","NDOSE":2,"PARAMCD":"AVGDD","AVAL":2.8421,"PARAM":"Average Daily Dose (mg/day)","EXDURGR1":"31-90 days","TRTP":"Xanomeline Low Dose","TRT01P":"Xanomeline Low Dose","TRT01PN":null,"TRT01A":"Xanomeline Low Dose","SITEGR1":900,"SITEID":701,"TRTSDT":"2013-02-15","TRTEDT":"2013-03-24","ITTFL":"Y","SAFFL":"Y","EFFFL":"N","COMPLFL":"N"},{"STUDYID":"CDISCPILOT01","USUBJID":"01-701-1192","NDOSE":3,"PARAMCD":"TRTDUR","AVAL":183,"PARAM":"Duration of Exposure (days)","EXDURGR1":">168 days","TRTP":"Xanomeline Low Dose","TRT01P":"Xanomeline Low Dose","TRT01PN":null,"TRT01A":"Xanomeline Low Dose","SITEGR1":900,"SITEID":701,"TRTSDT":"2012-07-22","TRTEDT":"2013-01-20","ITTFL":"Y","SAFFL":"Y","EFFFL":"N","COMPLFL":"Y"},{"STUDYID":"CDISCPILOT01","USUBJID":"01-701-1192","NDOSE":3,"PARAMCD":"CUMDOSE","AVAL":162,"PARAM":"Cumulative Dose (mg)","EXDURGR1":">168 days","TRTP":"Xanomeline Low Dose","TRT01P":"Xanomeline Low Dose","TRT01PN":null,"TRT01A":"Xanomeline Low Dose","SITEGR1":900,"SITEID":701,"TRTSDT":"2012-07-22","TRTEDT":"2013-01-20","ITTFL":"Y","SAFFL":"Y","EFFFL":"N","COMPLFL":"Y"},{"STUDYID":"CDISCPILOT01","USUBJID":"01-701-1192","NDOSE":3,"PARAMCD":"AVGDD","AVAL":0.8852,"PARAM":"Average Daily Dose (mg/day)","EXDURGR1":">168 days","TRTP":"Xanomeline Low Dose","TRT01P":"Xanomeline Low Dose","TRT01PN":null,"TRT01A":"Xanomeline Low Dose","SITEGR1":900,"SITEID":701,"TRTSDT":"2012-07-22","TRTEDT":"2013-01-20","ITTFL":"Y","SAFFL":"Y","EFFFL":"N","COMPLFL":"Y"},{"STUDYID":"CDISCPILOT01","USUBJID":"01-701-1203","NDOSE":3,"PARAMCD":"TRTDUR","AVAL":183,"PARAM":"Duration of Exposure (days)","EXDURGR1":">168 days","TRTP":"Placebo","TRT01P":"Placebo","TRT01PN":null,"TRT01A":"Placebo","SITEGR1":900,"SITEID":701,"TRTSDT":"2013-02-02","TRTEDT":"2013-08-03","ITTFL":"Y","SAFFL":"Y","EFFFL":"N","COMPLFL":"Y"},{"STUDYID":"CDISCPILOT01","USUBJID":"01-701-1203","NDOSE":3,"PARAMCD":"CUMDOSE","AVAL":0,"PARAM":"Cumulative Dose (mg)","EXDURGR1":">168 days","TRTP":"Placebo","TRT01P":"Placebo","TRT01PN":null,"TRT01A":"Placebo","SITEGR1":900,"SITEID":701,"TRTSDT":"2013-02-02","TRTEDT":"2013-08-03","ITTFL":"Y","SAFFL":"Y","EFFFL":"N","COMPLFL":"Y"},{"STUDYID":"CDISCPILOT01","USUBJID":"01-701-1203","NDOSE":3,"PARAMCD":"AVGDD","AVAL":0,"PARAM":"Average Daily Dose (mg/day)","EXDURGR1":">168 days","TRTP":"Placebo","TRT01P":"Placebo","TRT01PN":null,"TRT01A":"Placebo","SITEGR1":900,"SITEID":701,"TRTSDT":"2013-02-02","TRTEDT":"2013-08-03","ITTFL":"Y","SAFFL":"Y","EFFFL":"N","COMPLFL":"Y"},{"STUDYID":"CDISCPILOT01","USUBJID":"01-701-1211","NDOSE":2,"PARAMCD":"TRTDUR","AVAL":59,"PARAM":"Duration of Exposure (days)","EXDURGR1":"31-90 days","TRTP":"Xanomeline Low Dose","TRT01P":"Xanomeline Low Dose","TRT01PN":null,"TRT01A":"Xanomeline Low Dose","SITEGR1":900,"SITEID":701,"TRTSDT":"2012-11-15","TRTEDT":"2013-01-12","ITTFL":"Y","SAFFL":"Y","EFFFL":"N","COMPLFL":"N"},{"STUDYID":"CDISCPILOT01","USUBJID":"01-701-1211","NDOSE":2,"PARAMCD":"CUMDOSE","AVAL":108,"PARAM":"Cumulative Dose (mg)","EXDURGR1":"31-90 days","TRTP":"Xanomeline Low Dose","TRT01P":"Xanomeline Low Dose","TRT01PN":null,"TRT01A":"Xanomeline Low Dose","SITEGR1":900,"SITEID":701,"TRTSDT":"2012-11-15","TRTEDT":"2013-01-12","ITTFL":"Y","SAFFL":"Y","EFFFL":"N","COMPLFL":"N"},{"STUDYID":"CDISCPILOT01","USUBJID":"01-701-1211","NDOSE":2,"PARAMCD":"AVGDD","AVAL":1.8305,"PARAM":"Average Daily Dose (mg/day)","EXDURGR1":"31-90 days","TRTP":"Xanomeline Low Dose","TRT01P":"Xanomeline Low Dose","TRT01PN":null,"TRT01A":"Xanomeline Low Dose","SITEGR1":900,"SITEID":701,"TRTSDT":"2012-11-15","TRTEDT":"2013-01-12","ITTFL":"Y","SAFFL":"Y","EFFFL":"N","COMPLFL":"N"},{"STUDYID":"CDISCPILOT01","USUBJID":"01-701-1234","NDOSE":3,"PARAMCD":"TRTDUR","AVAL":177,"PARAM":"Duration of Exposure (days)","EXDURGR1":">168 days","TRTP":"Placebo","TRT01P":"Placebo","TRT01PN":null,"TRT01A":"Placebo","SITEGR1":900,"SITEID":701,"TRTSDT":"2013-03-30","TRTEDT":"2013-09-22","ITTFL":"Y","SAFFL":"Y","EFFFL":"N","COMPLFL":"Y"},{"STUDYID":"CDISCPILOT01","USUBJID":"01-701-1234","NDOSE":3,"PARAMCD":"CUMDOSE","AVAL":0,"PARAM":"Cumulative Dose (mg)","EXDURGR1":">168 days","TRTP":"Placebo","TRT01P":"Placebo","TRT01PN":null,"TRT01A":"Placebo","SITEGR1":900,"SITEID":701,"TRTSDT":"2013-03-30","TRTEDT":"2013-09-22","ITTFL":"Y","SAFFL":"Y","EFFFL":"N","COMPLFL":"Y"},{"STUDYID":"CDISCPILOT01","USUBJID":"01-701-1234","NDOSE":3,"PARAMCD":"AVGDD","AVAL":0,"PARAM":"Average Daily Dose (mg/day)","EXDURGR1":">168 days","TRTP":"Placebo","TRT01P":"Placebo","TRT01PN":null,"TRT01A":"Placebo","SITEGR1":900,"SITEID":701,"TRTSDT":"2013-03-30","TRTEDT":"2013-09-22","ITTFL":"Y","SAFFL":"Y","EFFFL":"N","COMPLFL":"Y"},{"STUDYID":"CDISCPILOT01","USUBJID":"01-701-1239","NDOSE":3,"PARAMCD":"TRTDUR","AVAL":181,"PARAM":"Duration of Exposure (days)","EXDURGR1":">168 days","TRTP":"Xanomeline High Dose","TRT01P":"Xanomeline High Dose","TRT01PN":null,"TRT01A":"Xanomeline High Dose","SITEGR1":900,"SITEID":701,"TRTSDT":"2014-01-11","TRTEDT":"2014-07-10","ITTFL":"Y","SAFFL":"Y","EFFFL":"N","COMPLFL":"Y"},{"STUDYID":"CDISCPILOT01","USUBJID":"01-701-1239","NDOSE":3,"PARAMCD":"CUMDOSE","AVAL":189,"PARAM":"Cumulative Dose (mg)","EXDURGR1":">168 days","TRTP":"Xanomeline High Dose","TRT01P":"Xanomeline High Dose","TRT01PN":null,"TRT01A":"Xanomeline High Dose","SITEGR1":900,"SITEID":701,"TRTSDT":"2014-01-11","TRTEDT":"2014-07-10","ITTFL":"Y","SAFFL":"Y","EFFFL":"N","COMPLFL":"Y"},{"STUDYID":"CDISCPILOT01","USUBJID":"01-701-1239","NDOSE":3,"PARAMCD":"AVGDD","AVAL":1.0442,"PARAM":"Average Daily Dose (mg/day)","EXDURGR1":">168 days","TRTP":"Xanomeline High Dose","TRT01P":"Xanomeline High Dose","TRT01PN":null,"TRT01A":"Xanomeline High Dose","SITEGR1":900,"SITEID":701,"TRTSDT":"2014-01-11","TRTEDT":"2014-07-10","ITTFL":"Y","SAFFL":"Y","EFFFL":"N","COMPLFL":"Y"},{"STUDYID":"CDISCPILOT01","USUBJID":"01-701-1275","NDOSE":2,"PARAMCD":"TRTDUR","AVAL":114,"PARAM":"Duration of Exposure (days)","EXDURGR1":"91-168 days","TRTP":"Xanomeline High Dose","TRT01P":"Xanomeline High Dose","TRT01PN":null,"TRT01A":"Xanomeline High Dose","SITEGR1":900,"SITEID":701,"TRTSDT":"2014-02-07","TRTEDT":"2014-05-31","ITTFL":"Y","SAFFL":"Y","EFFFL":"N","COMPLFL":"N"},{"STUDYID":"CDISCPILOT01","USUBJID":"01-701-1275","NDOSE":2,"PARAMCD":"CUMDOSE","AVAL":135,"PARAM":"Cumulative Dose (mg)","EXDURGR1":"91-168 days","TRTP":"Xanomeline High Dose","TRT01P":"Xanomeline High Dose","TRT01PN":null,"TRT01A":"Xanomeline High Dose","SITEGR1":900,"SITEID":701,"TRTSDT":"2014-02-07","TRTEDT":"2014-05-31","ITTFL":"Y","SAFFL":"Y","EFFFL":"N","COMPLFL":"N"},{"STUDYID":"CDISCPILOT01","USUBJID":"01-701-1275","NDOSE":2,"PARAMCD":"AVGDD","AVAL":1.1842,"PARAM":"Average Daily Dose (mg/day)","EXDURGR1":"91-168 days","TRTP":"Xanomeline High Dose","TRT01P":"Xanomeline High Dose","TRT01PN":null,"TRT01A":"Xanomeline High Dose","SITEGR1":900,"SITEID":701,"TRTSDT":"2014-02-07","TRTEDT":"2014-05-31","ITTFL":"Y","SAFFL":"Y","EFFFL":"N","COMPLFL":"N"},{"STUDYID":"CDISCPILOT01","USUBJID":"01-701-1287","NDOSE":3,"PARAMCD":"TRTDUR","AVAL":183,"PARAM":"Duration of Exposure (days)","EXDURGR1":">168 days","TRTP":"Xanomeline High Dose","TRT01P":"Xanomeline High Dose","TRT01PN":null,"TRT01A":"Xanomeline High Dose","SITEGR1":900,"SITEID":701,"TRTSDT":"2014-01-25","TRTEDT":"2014-07-26","ITTFL":"Y","SAFFL":"Y","EFFFL":"N","COMPLFL":"Y"},{"STUDYID":"CDISCPILOT01","USUBJID":"01-701-1287","NDOSE":3,"PARAMCD":"CUMDOSE","AVAL":189,"PARAM":"Cumulative Dose (mg)","EXDURGR1":">168 days","TRTP":"Xanomeline High Dose","TRT01P":"Xanomeline High Dose","TRT01PN":null,"TRT01A":"Xanomeline High Dose","SITEGR1":900,"SITEID":701,"TRTSDT":"2014-01-25","TRTEDT":"2014-07-26","ITTFL":"Y","SAFFL":"Y","EFFFL":"N","COMPLFL":"Y"},{"STUDYID":"CDISCPILOT01","USUBJID":"01-701-1287","NDOSE":3,"PARAMCD":"AVGDD","AVAL":1.0328,"PARAM":"Average Daily Dose (mg/day)","EXDURGR1":">168 days","TRTP":"Xanomeline High Dose","TRT01P":"Xanomeline High Dose","TRT01PN":null,"TRT01A":"Xanomeline High Dose","SITEGR1":900,"SITEID":701,"TRTSDT":"2014-01-25","TRTEDT":"2014-07-26","ITTFL":"Y","SAFFL":"Y","EFFFL":"N","COMPLFL":"Y"},{"STUDYID":"CDISCPILOT01","USUBJID":"01-701-1294","NDOSE":2,"PARAMCD":"TRTDUR","AVAL":83,"PARAM":"Duration of Exposure (days)","EXDURGR1":"31-90 days","TRTP":"Xanomeline Low Dose","TRT01P":"Xanomeline Low Dose","TRT01PN":null,"TRT01A":"Xanomeline Low Dose","SITEGR1":900,"SITEID":701,"TRTSDT":"2013-03-24","TRTEDT":"2013-06-14","ITTFL":"Y","SAFFL":"Y","EFFFL":"N","COMPLFL":"N"},{"STUDYID":"CDISCPILOT01","USUBJID":"01-701-1294","NDOSE":2,"PARAMCD":"CUMDOSE","AVAL":108,"PARAM":"Cumulative Dose (mg)","EXDURGR1":"31-90 days","TRTP":"Xanomeline Low Dose","TRT01P":"Xanomeline Low Dose","TRT01PN":null,"TRT01A":"Xanomeline Low Dose","SITEGR1":900,"SITEID":701,"TRTSDT":"2013-03-24","TRTEDT":"2013-06-14","ITTFL":"Y","SAFFL":"Y","EFFFL":"N","COMPLFL":"N"},{"STUDYID":"CDISCPILOT01","USUBJID":"01-701-1294","NDOSE":2,"PARAMCD":"AVGDD","AVAL":1.3012,"PARAM":"Average Daily Dose (mg/day)","EXDURGR1":"31-90 days","TRTP":"Xanomeline Low Dose","TRT01P":"Xanomeline Low Dose","TRT01PN":null,"TRT01A":"Xanomeline Low Dose","SITEGR1":900,"SITEID":701,"TRTSDT":"2013-03-24","TRTEDT":"2013-06-14","ITTFL":"Y","SAFFL":"Y","EFFFL":"N","COMPLFL":"N"},{"STUDYID":"CDISCPILOT01","USUBJID":"01-701-1302","NDOSE":2,"PARAMCD":"TRTDUR","AVAL":69,"PARAM":"Duration of Exposure (days)","EXDURGR1":"31-90 days","TRTP":"Xanomeline High Dose","TRT01P":"Xanomeline High Dose","TRT01PN":null,"TRT01A":"Xanomeline High Dose","SITEGR1":900,"SITEID":701,"TRTSDT":"2013-08-29","TRTEDT":"2013-11-05","ITTFL":"Y","SAFFL":"Y","EFFFL":"N","COMPLFL":"N"},{"STUDYID":"CDISCPILOT01","USUBJID":"01-701-1302","NDOSE":2,"PARAMCD":"CUMDOSE","AVAL":135,"PARAM":"Cumulative Dose (mg)","EXDURGR1":"31-90 days","TRTP":"Xanomeline High Dose","TRT01P":"Xanomeline High Dose","TRT01PN":null,"TRT01A":"Xanomeline High Dose","SITEGR1":900,"SITEID":701,"TRTSDT":"2013-08-29","TRTEDT":"2013-11-05","ITTFL":"Y","SAFFL":"Y","EFFFL":"N","COMPLFL":"N"},{"STUDYID":"CDISCPILOT01","USUBJID":"01-701-1302","NDOSE":2,"PARAMCD":"AVGDD","AVAL":1.9565,"PARAM":"Average Daily Dose (mg/day)","EXDURGR1":"31-90 days","TRTP":"Xanomeline High Dose","TRT01P":"Xanomeline High Dose","TRT01PN":null,"TRT01A":"Xanomeline High Dose","SITEGR1":900,"SITEID":701,"TRTSDT":"2013-08-29","TRTEDT":"2013-11-05","ITTFL":"Y","SAFFL":"Y","EFFFL":"N","COMPLFL":"N"},{"STUDYID":"CDISCPILOT01","USUBJID":"01-701-1317","NDOSE":3,"PARAMCD":"TRTDUR","AVAL":183,"PARAM":"Duration of Exposure (days)","EXDURGR1":">168 days","TRTP":"Xanomeline Low Dose","TRT01P":"Xanomeline Low Dose","TRT01PN":null,"TRT01A":"Xanomeline Low Dose","SITEGR1":900,"SITEID":701,"TRTSDT":"2014-05-22","TRTEDT":"2014-11-20","ITTFL":"Y","SAFFL":"Y","EFFFL":"N","COMPLFL":"Y"},{"STUDYID":"CDISCPILOT01","USUBJID":"01-701-1317","NDOSE":3,"PARAMCD":"CUMDOSE","AVAL":162,"PARAM":"Cumulative Dose (mg)","EXDURGR1":">168 days","TRTP":"Xanomeline Low Dose","TRT01P":"Xanomeline Low Dose","TRT01PN":null,"TRT01A":"Xanomeline Low Dose","SITEGR1":900,"SITEID":701,"TRTSDT":"2014-05-22","TRTEDT":"2014-11-20","ITTFL":"Y","SAFFL":"Y","EFFFL":"N","COMPLFL":"Y"},{"STUDYID":"CDISCPILOT01","USUBJID":"01-701-1317","NDOSE":3,"PARAMCD":"AVGDD","AVAL":0.8852,"PARAM":"Average Daily Dose (mg/day)","EXDURGR1":">168 days","TRTP":"Xanomeline Low Dose","TRT01P":"Xanomeline Low Dose","TRT01PN":null,"TRT01A":"Xanomeline Low Dose","SITEGR1":900,"SITEID":701,"TRTSDT":"2014-05-22","TRTEDT":"2014-11-20","ITTFL":"Y","SAFFL":"Y","EFFFL":"N","COMPLFL":"Y"},{"STUDYID":"CDISCPILOT01","USUBJID":"01-701-1324","NDOSE":3,"PARAMCD":"TRTDUR","AVAL":183,"PARAM":"Duration of Exposure (days)","EXDURGR1":">168 days","TRTP":"Xanomeline Low Dose","TRT01P":"Xanomeline Low Dose","TRT01PN":null,"TRT01A":"Xanomeline Low Dose","SITEGR1":900,"SITEID":701,"TRTSDT":"2012-10-02","TRTEDT":"2013-04-02","ITTFL":"Y","SAFFL":"Y","EFFFL":"N","COMPLFL":"Y"},{"STUDYID":"CDISCPILOT01","USUBJID":"01-701-1324","NDOSE":3,"PARAMCD":"CUMDOSE","AVAL":162,"PARAM":"Cumulative Dose (mg)","EXDURGR1":">168 days","TRTP":"Xanomeline Low Dose","TRT01P":"Xanomeline Low Dose","TRT01PN":null,"TRT01A":"Xanomeline Low Dose","SITEGR1":900,"SITEID":701,"TRTSDT":"2012-10-02","TRTEDT":"2013-04-02","ITTFL":"Y","SAFFL":"Y","EFFFL":"N","COMPLFL":"Y"},{"STUDYID":"CDISCPILOT01","USUBJID":"01-701-1324","NDOSE":3,"PARAMCD":"AVGDD","AVAL":0.8852,"PARAM":"Average Daily Dose (mg/day)","EXDURGR1":">168 days","TRTP":"Xanomeline Low Dose","TRT01P":"Xanomeline Low Dose","TRT01PN":null,"TRT01A":"Xanomeline Low Dose","SITEGR1":900,"SITEID":701,"TRTSDT":"2012-10-02","TRTEDT":"2013-04-02","ITTFL":"Y","SAFFL":"Y","EFFFL":"N","COMPLFL":"Y"},{"STUDYID":"CDISCPILOT01","USUBJID":"01-701-1341","NDOSE":2,"PARAMCD":"TRTDUR","AVAL":22,"PARAM":"Duration of Exposure (days)","EXDURGR1":"<=30 days","TRTP":"Xanomeline Low Dose","TRT01P":"Xanomeline Low Dose","TRT01PN":null,"TRT01A":"Xanomeline Low Dose","SITEGR1":900,"SITEID":701,"TRTSDT":"2013-01-05","TRTEDT":"2013-01-26","ITTFL":"Y","SAFFL":"Y","EFFFL":"N","COMPLFL":"N"},{"STUDYID":"CDISCPILOT01","USUBJID":"01-701-1341","NDOSE":2,"PARAMCD":"CUMDOSE","AVAL":108,"PARAM":"Cumulative Dose (mg)","EXDURGR1":"<=30 days","TRTP":"Xanomeline Low Dose","TRT01P":"Xanomeline Low Dose","TRT01PN":null,"TRT01A":"Xanomeline Low Dose","SITEGR1":900,"SITEID":701,"TRTSDT":"2013-01-05","TRTEDT":"2013-01-26","ITTFL":"Y","SAFFL":"Y","EFFFL":"N","COMPLFL":"N"},{"STUDYID":"CDISCPILOT01","USUBJID":"01-701-1341","NDOSE":2,"PARAMCD":"AVGDD","AVAL":4.9091,"PARAM":"Average Daily Dose (mg/day)","EXDURGR1":"<=30 days","TRTP":"Xanomeline Low Dose","TRT01P":"Xanomeline Low Dose","TRT01PN":null,"TRT01A":"Xanomeline Low Dose","SITEGR1":900,"SITEID":701,"TRTSDT":"2013-01-05","TRTEDT":"2013-01-26","ITTFL":"Y","SAFFL":"Y","EFFFL":"N","COMPLFL":"N"},{"STUDYID":"CDISCPILOT01","USUBJID":"01-701-1345","NDOSE":2,"PARAMCD":"TRTDUR","AVAL":162,"PARAM":"Duration of Exposure (days)","EXDURGR1":"91-168 days","TRTP":"Placebo","TRT01P":"Placebo","TRT01PN":null,"TRT01A":"Placebo","SITEGR1":900,"SITEID":701,"TRTSDT":"2013-10-08","TRTEDT":"2014-03-18","ITTFL":"Y","SAFFL":"Y","EFFFL":"N","COMPLFL":"N"},{"STUDYID":"CDISCPILOT01","USUBJID":"01-701-1345","NDOSE":2,"PARAMCD":"CUMDOSE","AVAL":0,"PARAM":"Cumulative Dose (mg)","EXDURGR1":"91-168 days","TRTP":"Placebo","TRT01P":"Placebo","TRT01PN":null,"TRT01A":"Placebo","SITEGR1":900,"SITEID":701,"TRTSDT":"2013-10-08","TRTEDT":"2014-03-18","ITTFL":"Y","SAFFL":"Y","EFFFL":"N","COMPLFL":"N"},{"STUDYID":"CDISCPILOT01","USUBJID":"01-701-1345","NDOSE":2,"PARAMCD":"AVGDD","AVAL":0,"PARAM":"Average Daily Dose (mg/day)","EXDURGR1":"91-168 days","TRTP":"Placebo","TRT01P":"Placebo","TRT01PN":null,"TRT01A":"Placebo","SITEGR1":900,"SITEID":701,"TRTSDT":"2013-10-08","TRTEDT":"2014-03-18","ITTFL":"Y","SAFFL":"Y","EFFFL":"N","COMPLFL":"N"},{"STUDYID":"CDISCPILOT01","USUBJID":"01-701-1360","NDOSE":1,"PARAMCD":"TRTDUR","AVAL":6,"PARAM":"Duration of Exposure (days)","EXDURGR1":"<=30 days","TRTP":"Xanomeline High Dose","TRT01P":"Xanomeline High Dose","TRT01PN":null,"TRT01A":"Xanomeline Low Dose","SITEGR1":900,"SITEID":701,"TRTSDT":"2013-07-31","TRTEDT":"2013-08-05","ITTFL":"Y","SAFFL":"Y","EFFFL":"N","COMPLFL":"N"},{"STUDYID":"CDISCPILOT01","USUBJID":"01-701-1360","NDOSE":1,"PARAMCD":"CUMDOSE","AVAL":54,"PARAM":"Cumulative Dose (mg)","EXDURGR1":"<=30 days","TRTP":"Xanomeline High Dose","TRT01P":"Xanomeline High Dose","TRT01PN":null,"TRT01A":"Xanomeline Low Dose","SITEGR1":900,"SITEID":701,"TRTSDT":"2013-07-31","TRTEDT":"2013-08-05","ITTFL":"Y","SAFFL":"Y","EFFFL":"N","COMPLFL":"N"},{"STUDYID":"CDISCPILOT01","USUBJID":"01-701-1360","NDOSE":1,"PARAMCD":"AVGDD","AVAL":9,"PARAM":"Average Daily Dose (mg/day)","EXDURGR1":"<=30 days","TRTP":"Xanomeline High Dose","TRT01P":"Xanomeline High Dose","TRT01PN":null,"TRT01A":"Xanomeline Low Dose","SITEGR1":900,"SITEID":701,"TRTSDT":"2013-07-31","TRTEDT":"2013-08-05","ITTFL":"Y","SAFFL":"Y","EFFFL":"N","COMPLFL":"N"},{"STUDYID":"CDISCPILOT01","USUBJID":"01-701-1363","NDOSE":3,"PARAMCD":"TRTDUR","AVAL":182,"PARAM":"Duration of Exposure (days)","EXDURGR1":">168 days","TRTP":"Placebo","TRT01P":"Placebo","TRT01PN":null,"TRT01A":"Placebo","SITEGR1":900,"SITEID":701,"TRTSDT":"2013-05-30","TRTEDT":"2013-11-27","ITTFL":"Y","SAFFL":"Y","EFFFL":"N","COMPLFL":"Y"},{"STUDYID":"CDISCPILOT01","USUBJID":"01-701-1363","NDOSE":3,"PARAMCD":"CUMDOSE","AVAL":0,"PARAM":"Cumulative Dose (mg)","EXDURGR1":">168 days","TRTP":"Placebo","TRT01P":"Placebo","TRT01PN":null,"TRT01A":"Placebo","SITEGR1":900,"SITEID":701,"TRTSDT":"2013-05-30","TRTEDT":"2013-11-27","ITTFL":"Y","SAFFL":"Y","EFFFL":"N","COMPLFL":"Y"},{"STUDYID":"CDISCPILOT01","USUBJID":"01-701-1363","NDOSE":3,"PARAMCD":"AVGDD","AVAL":0,"PARAM":"Average Daily Dose (mg/day)","EXDURGR1":">168 days","TRTP":"Placebo","TRT01P":"Placebo","TRT01PN":null,"TRT01A":"Placebo","SITEGR1":900,"SITEID":701,"TRTSDT":"2013-05-30","TRTEDT":"2013-11-27","ITTFL":"Y","SAFFL":"Y","EFFFL":"N","COMPLFL":"Y"},{"STUDYID":"CDISCPILOT01","USUBJID":"01-701-1383","NDOSE":3,"PARAMCD":"TRTDUR","AVAL":184,"PARAM":"Duration of Exposure (days)","EXDURGR1":">168 days","TRTP":"Xanomeline High Dose","TRT01P":"Xanomeline High Dose","TRT01PN":null,"TRT01A":"Xanomeline High Dose","SITEGR1":900,"SITEID":701,"TRTSDT":"2013-02-04","TRTEDT":"2013-08-06","ITTFL":"Y","SAFFL":"Y","EFFFL":"N","COMPLFL":"Y"},{"STUDYID":"CDISCPILOT01","USUBJID":"01-701-1383","NDOSE":3,"PARAMCD":"CUMDOSE","AVAL":189,"PARAM":"Cumulative Dose (mg)","EXDURGR1":">168 days","TRTP":"Xanomeline High Dose","TRT01P":"Xanomeline High Dose","TRT01PN":null,"TRT01A":"Xanomeline High Dose","SITEGR1":900,"SITEID":701,"TRTSDT":"2013-02-04","TRTEDT":"2013-08-06","ITTFL":"Y","SAFFL":"Y","EFFFL":"N","COMPLFL":"Y"},{"STUDYID":"CDISCPILOT01","USUBJID":"01-701-1383","NDOSE":3,"PARAMCD":"AVGDD","AVAL":1.0272,"PARAM":"Average Daily Dose (mg/day)","EXDURGR1":">168 days","TRTP":"Xanomeline High Dose","TRT01P":"Xanomeline High Dose","TRT01PN":null,"TRT01A":"Xanomeline High Dose","SITEGR1":900,"SITEID":701,"TRTSDT":"2013-02-04","TRTEDT":"2013-08-06","ITTFL":"Y","SAFFL":"Y","EFFFL":"N","COMPLFL":"Y"},{"STUDYID":"CDISCPILOT01","USUBJID":"01-701-1387","NDOSE":1,"PARAMCD":"TRTDUR","AVAL":14,"PARAM":"Duration of Exposure (days)","EXDURGR1":"<=30 days","TRTP":"Placebo","TRT01P":"Placebo","TRT01PN":null,"TRT01A":"Placebo","SITEGR1":900,"SITEID":701,"TRTSDT":"2014-03-12","TRTEDT":"2014-03-25","ITTFL":"Y","SAFFL":"Y","EFFFL":"N","COMPLFL":"N"},{"STUDYID":"CDISCPILOT01","USUBJID":"01-701-1387","NDOSE":1,"PARAMCD":"CUMDOSE","AVAL":0,"PARAM":"Cumulative Dose (mg)","EXDURGR1":"<=30 days","TRTP":"Placebo","TRT01P":"Placebo","TRT01PN":null,"TRT01A":"Placebo","SITEGR1":900,"SITEID":701,"TRTSDT":"2014-03-12","TRTEDT":"2014-03-25","ITTFL":"Y","SAFFL":"Y","EFFFL":"N","COMPLFL":"N"},{"STUDYID":"CDISCPILOT01","USUBJID":"01-701-1387","NDOSE":1,"PARAMCD":"AVGDD","AVAL":0,"PARAM":"Average Daily Dose (mg/day)","EXDURGR1":"<=30 days","TRTP":"Placebo","TRT01P":"Placebo","TRT01PN":null,"TRT01A":"Placebo","SITEGR1":900,"SITEID":701,"TRTSDT":"2014-03-12","TRTEDT":"2014-03-25","ITTFL":"Y","SAFFL":"Y","EFFFL":"N","COMPLFL":"N"},{"STUDYID":"CDISCPILOT01","USUBJID":"01-701-1392","NDOSE":3,"PARAMCD":"TRTDUR","AVAL":183,"PARAM":"Duration of Exposure (days)","EXDURGR1":">168 days","TRTP":"Placebo","TRT01P":"Placebo","TRT01PN":null,"TRT01A":"Placebo","SITEGR1":900,"SITEID":701,"TRTSDT":"2012-10-28","TRTEDT":"2013-04-28","ITTFL":"Y","SAFFL":"Y","EFFFL":"N","COMPLFL":"Y"},{"STUDYID":"CDISCPILOT01","USUBJID":"01-701-1392","NDOSE":3,"PARAMCD":"CUMDOSE","AVAL":0,"PARAM":"Cumulative Dose (mg)","EXDURGR1":">168 days","TRTP":"Placebo","TRT01P":"Placebo","TRT01PN":null,"TRT01A":"Placebo","SITEGR1":900,"SITEID":701,"TRTSDT":"2012-10-28","TRTEDT":"2013-04-28","ITTFL":"Y","SAFFL":"Y","EFFFL":"N","COMPLFL":"Y"},{"STUDYID":"CDISCPILOT01","USUBJID":"01-701-1392","NDOSE":3,"PARAMCD":"AVGDD","AVAL":0,"PARAM":"Average Daily Dose (mg/day)","EXDURGR1":">168 days","TRTP":"Placebo","TRT01P":"Placebo","TRT01PN":null,"TRT01A":"Placebo","SITEGR1":900,"SITEID":701,"TRTSDT":"2012-10-28","TRTEDT":"2013-04-28","ITTFL":"Y","SAFFL":"Y","EFFFL":"N","COMPLFL":"Y"},{"STUDYID":"CDISCPILOT01","USUBJID":"01-701-1415","NDOSE":3,"PARAMCD":"TRTDUR","AVAL":183,"PARAM":"Duration of Exposure (days)","EXDURGR1":">168 days","TRTP":"Placebo","TRT01P":"Placebo","TRT01PN":null,"TRT01A":"Placebo","SITEGR1":900,"SITEID":701,"TRTSDT":"2013-09-23","TRTEDT":"2014-03-24","ITTFL":"Y","SAFFL":"Y","EFFFL":"N","COMPLFL":"Y"},{"STUDYID":"CDISCPILOT01","USUBJID":"01-701-1415","NDOSE":3,"PARAMCD":"CUMDOSE","AVAL":0,"PARAM":"Cumulative Dose (mg)","EXDURGR1":">168 days","TRTP":"Placebo","TRT01P":"Placebo","TRT01PN":null,"TRT01A":"Placebo","SITEGR1":900,"SITEID":701,"TRTSDT":"2013-09-23","TRTEDT":"2014-03-24","ITTFL":"Y","SAFFL":"Y","EFFFL":"N","COMPLFL":"Y"},{"STUDYID":"CDISCPILOT01","USUBJID":"01-701-1415","NDOSE":3,"PARAMCD":"AVGDD","AVAL":0,"PARAM":"Average Daily Dose (mg/day)","EXDURGR1":">168 days","TRTP":"Placebo","TRT01P":"Placebo","TRT01PN":null,"TRT01A":"Placebo","SITEGR1":900,"SITEID":701,"TRTSDT":"2013-09-23","TRTEDT":"2014-03-24","ITTFL":"Y","SAFFL":"Y","EFFFL":"N","COMPLFL":"Y"},{"STUDYID":"CDISCPILOT01","USUBJID":"01-701-1429","NDOSE":2,"PARAMCD":"TRTDUR","AVAL":43,"PARAM":"Duration of Exposure (days)","EXDURGR1":"31-90 days","TRTP":"Xanomeline Low Dose","TRT01P":"Xanomeline Low Dose","TRT01PN":null,"TRT01A":"Xanomeline Low Dose","SITEGR1":900,"SITEID":701,"TRTSDT":"2013-03-19","TRTEDT":"2013-04-30","ITTFL":"Y","SAFFL":"Y","EFFFL":"N","COMPLFL":"N"},{"STUDYID":"CDISCPILOT01","USUBJID":"01-701-1429","NDOSE":2,"PARAMCD":"CUMDOSE","AVAL":108,"PARAM":"Cumulative Dose (mg)","EXDURGR1":"31-90 days","TRTP":"Xanomeline Low Dose","TRT01P":"Xanomeline Low Dose","TRT01PN":null,"TRT01A":"Xanomeline Low Dose","SITEGR1":900,"SITEID":701,"TRTSDT":"2013-03-19","TRTEDT":"2013-04-30","ITTFL":"Y","SAFFL":"Y","EFFFL":"N","COMPLFL":"N"},{"STUDYID":"CDISCPILOT01","USUBJID":"01-701-1429","NDOSE":2,"PARAMCD":"AVGDD","AVAL":2.5116,"PARAM":"Average Daily Dose (mg/day)","EXDURGR1":"31-90 days","TRTP":"Xanomeline Low Dose","TRT01P":"Xanomeline Low Dose","TRT01PN":null,"TRT01A":"Xanomeline Low Dose","SITEGR1":900,"SITEID":701,"TRTSDT":"2013-03-19","TRTEDT":"2013-04-30","ITTFL":"Y","SAFFL":"Y","EFFFL":"N","COMPLFL":"N"},{"STUDYID":"CDISCPILOT01","USUBJID":"01-701-1440","NDOSE":3,"PARAMCD":"TRTDUR","AVAL":182,"PARAM":"Duration of Exposure (days)","EXDURGR1":">168 days","TRTP":"Placebo","TRT01P":"Placebo","TRT01PN":null,"TRT01A":"Placebo","SITEGR1":900,"SITEID":701,"TRTSDT":"2013-08-08","TRTEDT":"2014-02-05","ITTFL":"Y","SAFFL":"Y","EFFFL":"N","COMPLFL":"Y"},{"STUDYID":"CDISCPILOT01","USUBJID":"01-701-1440","NDOSE":3,"PARAMCD":"CUMDOSE","AVAL":0,"PARAM":"Cumulative Dose (mg)","EXDURGR1":">168 days","TRTP":"Placebo","TRT01P":"Placebo","TRT01PN":null,"TRT01A":"Placebo","SITEGR1":900,"SITEID":701,"TRTSDT":"2013-08-08","TRTEDT":"2014-02-05","ITTFL":"Y","SAFFL":"Y","EFFFL":"N","COMPLFL":"Y"},{"STUDYID":"CDISCPILOT01","USUBJID":"01-701-1440","NDOSE":3,"PARAMCD":"AVGDD","AVAL":0,"PARAM":"Average Daily Dose (mg/day)","EXDURGR1":">168 days","TRTP":"Placebo","TRT01P":"Placebo","TRT01PN":null,"TRT01A":"Placebo","SITEGR1":900,"SITEID":701,"TRTSDT":"2013-08-08","TRTEDT":"2014-02-05","ITTFL":"Y","SAFFL":"Y","EFFFL":"N","COMPLFL":"Y"},{"STUDYID":"CDISCPILOT01","USUBJID":"01-701-1442","NDOSE":3,"PARAMCD":"TRTDUR","AVAL":183,"PARAM":"Duration of Exposure (days)","EXDURGR1":">168 days","TRTP":"Xanomeline Low Dose","TRT01P":"Xanomeline Low Dose","TRT01PN":null,"TRT01A":"Xanomeline Low Dose","SITEGR1":900,"SITEID":701,"TRTSDT":"2013-10-26","TRTEDT":"2014-04-26","ITTFL":"Y","SAFFL":"Y","EFFFL":"N","COMPLFL":"Y"},{"STUDYID":"CDISCPILOT01","USUBJID":"01-701-1442","NDOSE":3,"PARAMCD":"CUMDOSE","AVAL":162,"PARAM":"Cumulative Dose (mg)","EXDURGR1":">168 days","TRTP":"Xanomeline Low Dose","TRT01P":"Xanomeline Low Dose","TRT01PN":null,"TRT01A":"Xanomeline Low Dose","SITEGR1":900,"SITEID":701,"TRTSDT":"2013-10-26","TRTEDT":"2014-04-26","ITTFL":"Y","SAFFL":"Y","EFFFL":"N","COMPLFL":"Y"},{"STUDYID":"CDISCPILOT01","USUBJID":"01-701-1442","NDOSE":3,"PARAMCD":"AVGDD","AVAL":0.8852,"PARAM":"Average Daily Dose (mg/day)","EXDURGR1":">168 days","TRTP":"Xanomeline Low Dose","TRT01P":"Xanomeline Low Dose","TRT01PN":null,"TRT01A":"Xanomeline Low Dose","SITEGR1":900,"SITEID":701,"TRTSDT":"2013-10-26","TRTEDT":"2014-04-26","ITTFL":"Y","SAFFL":"Y","EFFFL":"N","COMPLFL":"Y"},{"STUDYID":"CDISCPILOT01","USUBJID":"01-701-1444","NDOSE":2,"PARAMCD":"TRTDUR","AVAL":39,"PARAM":"Duration of Exposure (days)","EXDURGR1":"31-90 days","TRTP":"Xanomeline High Dose","TRT01P":"Xanomeline High Dose","TRT01PN":null,"TRT01A":"Xanomeline High Dose","SITEGR1":900,"SITEID":701,"TRTSDT":"2013-01-05","TRTEDT":"2013-02-12","ITTFL":"Y","SAFFL":"Y","EFFFL":"N","COMPLFL":"N"},{"STUDYID":"CDISCPILOT01","USUBJID":"01-701-1444","NDOSE":2,"PARAMCD":"CUMDOSE","AVAL":135,"PARAM":"Cumulative Dose (mg)","EXDURGR1":"31-90 days","TRTP":"Xanomeline High Dose","TRT01P":"Xanomeline High Dose","TRT01PN":null,"TRT01A":"Xanomeline High Dose","SITEGR1":900,"SITEID":701,"TRTSDT":"2013-01-05","TRTEDT":"2013-02-12","ITTFL":"Y","SAFFL":"Y","EFFFL":"N","COMPLFL":"N"},{"STUDYID":"CDISCPILOT01","USUBJID":"01-701-1444","NDOSE":2,"PARAMCD":"AVGDD","AVAL":3.4615,"PARAM":"Average Daily Dose (mg/day)","EXDURGR1":"31-90 days","TRTP":"Xanomeline High Dose","TRT01P":"Xanomeline High Dose","TRT01PN":null,"TRT01A":"Xanomeline High Dose","SITEGR1":900,"SITEID":701,"TRTSDT":"2013-01-05","TRTEDT":"2013-02-12","ITTFL":"Y","SAFFL":"Y","EFFFL":"N","COMPLFL":"N"},{"STUDYID":"CDISCPILOT01","USUBJID":"01-702-1082","NDOSE":2,"PARAMCD":"TRTDUR","AVAL":80,"PARAM":"Duration of Exposure (days)","EXDURGR1":"31-90 days","TRTP":"Xanomeline Low Dose","TRT01P":"Xanomeline Low Dose","TRT01PN":null,"TRT01A":"Xanomeline Low Dose","SITEGR1":900,"SITEID":702,"TRTSDT":"2013-07-26","TRTEDT":"2013-10-13","ITTFL":"Y","SAFFL":"Y","EFFFL":"N","COMPLFL":"N"},{"STUDYID":"CDISCPILOT01","USUBJID":"01-702-1082","NDOSE":2,"PARAMCD":"CUMDOSE","AVAL":108,"PARAM":"Cumulative Dose (mg)","EXDURGR1":"31-90 days","TRTP":"Xanomeline Low Dose","TRT01P":"Xanomeline Low Dose","TRT01PN":null,"TRT01A":"Xanomeline Low Dose","SITEGR1":900,"SITEID":702,"TRTSDT":"2013-07-26","TRTEDT":"2013-10-13","ITTFL":"Y","SAFFL":"Y","EFFFL":"N","COMPLFL":"N"},{"STUDYID":"CDISCPILOT01","USUBJID":"01-702-1082","NDOSE":2,"PARAMCD":"AVGDD","AVAL":1.35,"PARAM":"Average Daily Dose (mg/day)","EXDURGR1":"31-90 days","TRTP":"Xanomeline Low Dose","TRT01P":"Xanomeline Low Dose","TRT01PN":null,"TRT01A":"Xanomeline Low Dose","SITEGR1":900,"SITEID":702,"TRTSDT":"2013-07-26","TRTEDT":"2013-10-13","ITTFL":"Y","SAFFL":"Y","EFFFL":"N","COMPLFL":"N"},{"STUDYID":"CDISCPILOT01","USUBJID":"01-703-1042","NDOSE":3,"PARAMCD":"TRTDUR","AVAL":183,"PARAM":"Duration of Exposure (days)","EXDURGR1":">168 days","TRTP":"Placebo","TRT01P":"Placebo","TRT01PN":null,"TRT01A":"Placebo","SITEGR1":900,"SITEID":703,"TRTSDT":"2013-03-02","TRTEDT":"2013-08-31","ITTFL":"Y","SAFFL":"Y","EFFFL":"N","COMPLFL":"Y"},{"STUDYID":"CDISCPILOT01","USUBJID":"01-703-1042","NDOSE":3,"PARAMCD":"CUMDOSE","AVAL":0,"PARAM":"Cumulative Dose (mg)","EXDURGR1":">168 days","TRTP":"Placebo","TRT01P":"Placebo","TRT01PN":null,"TRT01A":"Placebo","SITEGR1":900,"SITEID":703,"TRTSDT":"2013-03-02","TRTEDT":"2013-08-31","ITTFL":"Y","SAFFL":"Y","EFFFL":"N","COMPLFL":"Y"},{"STUDYID":"CDISCPILOT01","USUBJID":"01-703-1042","NDOSE":3,"PARAMCD":"AVGDD","AVAL":0,"PARAM":"Average Daily Dose (mg/day)","EXDURGR1":">168 days","TRTP":"Placebo","TRT01P":"Placebo","TRT01PN":null,"TRT01A":"Placebo","SITEGR1":900,"SITEID":703,"TRTSDT":"2013-03-02","TRTEDT":"2013-08-31","ITTFL":"Y","SAFFL":"Y","EFFFL":"N","COMPLFL":"Y"},{"STUDYID":"CDISCPILOT01","USUBJID":"01-703-1076","NDOSE":2,"PARAMCD":"TRTDUR","AVAL":61,"PARAM":"Duration of Exposure (days)","EXDURGR1":"31-90 days","TRTP":"Xanomeline High Dose","TRT01P":"Xanomeline High Dose","TRT01PN":null,"TRT01A":"Xanomeline High Dose","SITEGR1":900,"SITEID":703,"TRTSDT":"2013-10-25","TRTEDT":"2013-12-24","ITTFL":"Y","SAFFL":"Y","EFFFL":"N","COMPLFL":"N"},{"STUDYID":"CDISCPILOT01","USUBJID":"01-703-1076","NDOSE":2,"PARAMCD":"CUMDOSE","AVAL":135,"PARAM":"Cumulative Dose (mg)","EXDURGR1":"31-90 days","TRTP":"Xanomeline High Dose","TRT01P":"Xanomeline High Dose","TRT01PN":null,"TRT01A":"Xanomeline High Dose","SITEGR1":900,"SITEID":703,"TRTSDT":"2013-10-25","TRTEDT":"2013-12-24","ITTFL":"Y","SAFFL":"Y","EFFFL":"N","COMPLFL":"N"},{"STUDYID":"CDISCPILOT01","USUBJID":"01-703-1076","NDOSE":2,"PARAMCD":"AVGDD","AVAL":2.2131,"PARAM":"Average Daily Dose (mg/day)","EXDURGR1":"31-90 days","TRTP":"Xanomeline High Dose","TRT01P":"Xanomeline High Dose","TRT01PN":null,"TRT01A":"Xanomeline High Dose","SITEGR1":900,"SITEID":703,"TRTSDT":"2013-10-25","TRTEDT":"2013-12-24","ITTFL":"Y","SAFFL":"Y","EFFFL":"N","COMPLFL":"N"},{"STUDYID":"CDISCPILOT01","USUBJID":"01-703-1086","NDOSE":2,"PARAMCD":"TRTDUR","AVAL":94,"PARAM":"Duration of Exposure (days)","EXDURGR1":"91-168 days","TRTP":"Xanomeline Low Dose","TRT01P":"Xanomeline Low Dose","TRT01PN":null,"TRT01A":"Xanomeline Low Dose","SITEGR1":900,"SITEID":703,"TRTSDT":"2012-09-02","TRTEDT":"2012-12-04","ITTFL":"Y","SAFFL":"Y","EFFFL":"N","COMPLFL":"N"},{"STUDYID":"CDISCPILOT01","USUBJID":"01-703-1086","NDOSE":2,"PARAMCD":"CUMDOSE","AVAL":108,"PARAM":"Cumulative Dose (mg)","EXDURGR1":"91-168 days","TRTP":"Xanomeline Low Dose","TRT01P":"Xanomeline Low Dose","TRT01PN":null,"TRT01A":"Xanomeline Low Dose","SITEGR1":900,"SITEID":703,"TRTSDT":"2012-09-02","TRTEDT":"2012-12-04","ITTFL":"Y","SAFFL":"Y","EFFFL":"N","COMPLFL":"N"},{"STUDYID":"CDISCPILOT01","USUBJID":"01-703-1086","NDOSE":2,"PARAMCD":"AVGDD","AVAL":1.1489,"PARAM":"Average Daily Dose (mg/day)","EXDURGR1":"91-168 days","TRTP":"Xanomeline Low Dose","TRT01P":"Xanomeline Low Dose","TRT01PN":null,"TRT01A":"Xanomeline Low Dose","SITEGR1":900,"SITEID":703,"TRTSDT":"2012-09-02","TRTEDT":"2012-12-04","ITTFL":"Y","SAFFL":"Y","EFFFL":"N","COMPLFL":"N"},{"STUDYID":"CDISCPILOT01","USUBJID":"01-703-1096","NDOSE":2,"PARAMCD":"TRTDUR","AVAL":51,"PARAM":"Duration of Exposure (days)","EXDURGR1":"31-90 days","TRTP":"Placebo","TRT01P":"Placebo","TRT01PN":null,"TRT01A":"Placebo","SITEGR1":900,"SITEID":703,"TRTSDT":"2013-01-25","TRTEDT":"2013-03-16","ITTFL":"Y","SAFFL":"Y","EFFFL":"N","COMPLFL":"N"},{"STUDYID":"CDISCPILOT01","USUBJID":"01-703-1096","NDOSE":2,"PARAMCD":"CUMDOSE","AVAL":0,"PARAM":"Cumulative Dose (mg)","EXDURGR1":"31-90 days","TRTP":"Placebo","TRT01P":"Placebo","TRT01PN":null,"TRT01A":"Placebo","SITEGR1":900,"SITEID":703,"TRTSDT":"2013-01-25","TRTEDT":"2013-03-16","ITTFL":"Y","SAFFL":"Y","EFFFL":"N","COMPLFL":"N"},{"STUDYID":"CDISCPILOT01","USUBJID":"01-703-1096","NDOSE":2,"PARAMCD":"AVGDD","AVAL":0,"PARAM":"Average Daily Dose (mg/day)","EXDURGR1":"31-90 days","TRTP":"Placebo","TRT01P":"Placebo","TRT01PN":null,"TRT01A":"Placebo","SITEGR1":900,"SITEID":703,"TRTSDT":"2013-01-25","TRTEDT":"2013-03-16","ITTFL":"Y","SAFFL":"Y","EFFFL":"N","COMPLFL":"N"},{"STUDYID":"CDISCPILOT01","USUBJID":"01-703-1100","NDOSE":3,"PARAMCD":"TRTDUR","AVAL":186,"PARAM":"Duration of Exposure (days)","EXDURGR1":">168 days","TRTP":"Placebo","TRT01P":"Placebo","TRT01PN":null,"TRT01A":"Placebo","SITEGR1":900,"SITEID":703,"TRTSDT":"2013-03-13","TRTEDT":"2013-09-14","ITTFL":"Y","SAFFL":"Y","EFFFL":"N","COMPLFL":"Y"},{"STUDYID":"CDISCPILOT01","USUBJID":"01-703-1100","NDOSE":3,"PARAMCD":"CUMDOSE","AVAL":0,"PARAM":"Cumulative Dose (mg)","EXDURGR1":">168 days","TRTP":"Placebo","TRT01P":"Placebo","TRT01PN":null,"TRT01A":"Placebo","SITEGR1":900,"SITEID":703,"TRTSDT":"2013-03-13","TRTEDT":"2013-09-14","ITTFL":"Y","SAFFL":"Y","EFFFL":"N","COMPLFL":"Y"},{"STUDYID":"CDISCPILOT01","USUBJID":"01-703-1100","NDOSE":3,"PARAMCD":"AVGDD","AVAL":0,"PARAM":"Average Daily Dose (mg/day)","EXDURGR1":">168 days","TRTP":"Placebo","TRT01P":"Placebo","TRT01PN":null,"TRT01A":"Placebo","SITEGR1":900,"SITEID":703,"TRTSDT":"2013-03-13","TRTEDT":"2013-09-14","ITTFL":"Y","SAFFL":"Y","EFFFL":"N","COMPLFL":"Y"},{"STUDYID":"CDISCPILOT01","USUBJID":"01-703-1119","NDOSE":2,"PARAMCD":"TRTDUR","AVAL":114,"PARAM":"Duration of Exposure (days)","EXDURGR1":"91-168 days","TRTP":"Xanomeline Low Dose","TRT01P":"Xanomeline Low Dose","TRT01PN":null,"TRT01A":"Xanomeline Low Dose","SITEGR1":900,"SITEID":703,"TRTSDT":"2013-02-20","TRTEDT":"2013-06-13","ITTFL":"Y","SAFFL":"Y","EFFFL":"N","COMPLFL":"N"},{"STUDYID":"CDISCPILOT01","USUBJID":"01-703-1119","NDOSE":2,"PARAMCD":"CUMDOSE","AVAL":108,"PARAM":"Cumulative Dose (mg)","EXDURGR1":"91-168 days","TRTP":"Xanomeline Low Dose","TRT01P":"Xanomeline Low Dose","TRT01PN":null,"TRT01A":"Xanomeline Low Dose","SITEGR1":900,"SITEID":703,"TRTSDT":"2013-02-20","TRTEDT":"2013-06-13","ITTFL":"Y","SAFFL":"Y","EFFFL":"N","COMPLFL":"N"},{"STUDYID":"CDISCPILOT01","USUBJID":"01-703-1119","NDOSE":2,"PARAMCD":"AVGDD","AVAL":0.9474,"PARAM":"Average Daily Dose (mg/day)","EXDURGR1":"91-168 days","TRTP":"Xanomeline Low Dose","TRT01P":"Xanomeline Low Dose","TRT01PN":null,"TRT01A":"Xanomeline Low Dose","SITEGR1":900,"SITEID":703,"TRTSDT":"2013-02-20","TRTEDT":"2013-06-13","ITTFL":"Y","SAFFL":"Y","EFFFL":"N","COMPLFL":"N"},{"STUDYID":"CDISCPILOT01","USUBJID":"01-703-1175","NDOSE":1,"PARAMCD":"TRTDUR","AVAL":7,"PARAM":"Duration of Exposure (days)","EXDURGR1":"<=30 days","TRTP":"Placebo","TRT01P":"Placebo","TRT01PN":null,"TRT01A":"Placebo","SITEGR1":900,"SITEID":703,"TRTSDT":"2013-12-20","TRTEDT":"2013-12-26","ITTFL":"Y","SAFFL":"Y","EFFFL":"N","COMPLFL":"N"},{"STUDYID":"CDISCPILOT01","USUBJID":"01-703-1175","NDOSE":1,"PARAMCD":"CUMDOSE","AVAL":0,"PARAM":"Cumulative Dose (mg)","EXDURGR1":"<=30 days","TRTP":"Placebo","TRT01P":"Placebo","TRT01PN":null,"TRT01A":"Placebo","SITEGR1":900,"SITEID":703,"TRTSDT":"2013-12-20","TRTEDT":"2013-12-26","ITTFL":"Y","SAFFL":"Y","EFFFL":"N","COMPLFL":"N"},{"STUDYID":"CDISCPILOT01","USUBJID":"01-703-1175","NDOSE":1,"PARAMCD":"AVGDD","AVAL":0,"PARAM":"Average Daily Dose (mg/day)","EXDURGR1":"<=30 days","TRTP":"Placebo","TRT01P":"Placebo","TRT01PN":null,"TRT01A":"Placebo","SITEGR1":900,"SITEID":703,"TRTSDT":"2013-12-20","TRTEDT":"2013-12-26","ITTFL":"Y","SAFFL":"Y","EFFFL":"N","COMPLFL":"N"},{"STUDYID":"CDISCPILOT01","USUBJID":"01-703-1182","NDOSE":2,"PARAMCD":"TRTDUR","AVAL":56,"PARAM":"Duration of Exposure (days)","EXDURGR1":"31-90 days","TRTP":"Xanomeline Low Dose","TRT01P":"Xanomeline Low Dose","TRT01PN":null,"TRT01A":"Xanomeline Low Dose","SITEGR1":900,"SITEID":703,"TRTSDT":"2013-10-17","TRTEDT":"2013-12-11","ITTFL":"Y","SAFFL":"Y","EFFFL":"N","COMPLFL":"N"},{"STUDYID":"CDISCPILOT01","USUBJID":"01-703-1182","NDOSE":2,"PARAMCD":"CUMDOSE","AVAL":108,"PARAM":"Cumulative Dose (mg)","EXDURGR1":"31-90 days","TRTP":"Xanomeline Low Dose","TRT01P":"Xanomeline Low Dose","TRT01PN":null,"TRT01A":"Xanomeline Low Dose","SITEGR1":900,"SITEID":703,"TRTSDT":"2013-10-17","TRTEDT":"2013-12-11","ITTFL":"Y","SAFFL":"Y","EFFFL":"N","COMPLFL":"N"},{"STUDYID":"CDISCPILOT01","USUBJID":"01-703-1182","NDOSE":2,"PARAMCD":"AVGDD","AVAL":1.9286,"PARAM":"Average Daily Dose (mg/day)","EXDURGR1":"31-90 days","TRTP":"Xanomeline Low Dose","TRT01P":"Xanomeline Low Dose","TRT01PN":null,"TRT01A":"Xanomeline Low Dose","SITEGR1":900,"SITEID":703,"TRTSDT":"2013-10-17","TRTEDT":"2013-12-11","ITTFL":"Y","SAFFL":"Y","EFFFL":"N","COMPLFL":"N"},{"STUDYID":"CDISCPILOT01","USUBJID":"01-703-1197","NDOSE":1,"PARAMCD":"TRTDUR","AVAL":14,"PARAM":"Duration of Exposure (days)","EXDURGR1":"<=30 days","TRTP":"Xanomeline Low Dose","TRT01P":"Xanomeline Low Dose","TRT01PN":null,"TRT01A":"Xanomeline Low Dose","SITEGR1":900,"SITEID":703,"TRTSDT":"2013-06-16","TRTEDT":"2013-06-29","ITTFL":"Y","SAFFL":"Y","EFFFL":"N","COMPLFL":"N"},{"STUDYID":"CDISCPILOT01","USUBJID":"01-703-1197","NDOSE":1,"PARAMCD":"CUMDOSE","AVAL":54,"PARAM":"Cumulative Dose (mg)","EXDURGR1":"<=30 days","TRTP":"Xanomeline Low Dose","TRT01P":"Xanomeline Low Dose","TRT01PN":null,"TRT01A":"Xanomeline Low Dose","SITEGR1":900,"SITEID":703,"TRTSDT":"2013-06-16","TRTEDT":"2013-06-29","ITTFL":"Y","SAFFL":"Y","EFFFL":"N","COMPLFL":"N"},{"STUDYID":"CDISCPILOT01","USUBJID":"01-703-1197","NDOSE":1,"PARAMCD":"AVGDD","AVAL":3.8571,"PARAM":"Average Daily Dose (mg/day)","EXDURGR1":"<=30 days","TRTP":"Xanomeline Low Dose","TRT01P":"Xanomeline Low Dose","TRT01PN":null,"TRT01A":"Xanomeline Low Dose","SITEGR1":900,"SITEID":703,"TRTSDT":"2013-06-16","TRTEDT":"2013-06-29","ITTFL":"Y","SAFFL":"Y","EFFFL":"N","COMPLFL":"N"},{"STUDYID":"CDISCPILOT01","USUBJID":"01-703-1210","NDOSE":3,"PARAMCD":"TRTDUR","AVAL":175,"PARAM":"Duration of Exposure (days)","EXDURGR1":">168 days","TRTP":"Placebo","TRT01P":"Placebo","TRT01PN":null,"TRT01A":"Placebo","SITEGR1":900,"SITEID":703,"TRTSDT":"2013-03-16","TRTEDT":"2013-09-06","ITTFL":"Y","SAFFL":"Y","EFFFL":"N","COMPLFL":"Y"},{"STUDYID":"CDISCPILOT01","USUBJID":"01-703-1210","NDOSE":3,"PARAMCD":"CUMDOSE","AVAL":0,"PARAM":"Cumulative Dose (mg)","EXDURGR1":">168 days","TRTP":"Placebo","TRT01P":"Placebo","TRT01PN":null,"TRT01A":"Placebo","SITEGR1":900,"SITEID":703,"TRTSDT":"2013-03-16","TRTEDT":"2013-09-06","ITTFL":"Y","SAFFL":"Y","EFFFL":"N","COMPLFL":"Y"},{"STUDYID":"CDISCPILOT01","USUBJID":"01-703-1210","NDOSE":3,"PARAMCD":"AVGDD","AVAL":0,"PARAM":"Average Daily Dose (mg/day)","EXDURGR1":">168 days","TRTP":"Placebo","TRT01P":"Placebo","TRT01PN":null,"TRT01A":"Placebo","SITEGR1":900,"SITEID":703,"TRTSDT":"2013-03-16","TRTEDT":"2013-09-06","ITTFL":"Y","SAFFL":"Y","EFFFL":"N","COMPLFL":"Y"},{"STUDYID":"CDISCPILOT01","USUBJID":"01-703-1258","NDOSE":3,"PARAMCD":"TRTDUR","AVAL":176,"PARAM":"Duration of Exposure (days)","EXDURGR1":">168 days","TRTP":"Xanomeline High Dose","TRT01P":"Xanomeline High Dose","TRT01PN":null,"TRT01A":"Xanomeline High Dose","SITEGR1":900,"SITEID":703,"TRTSDT":"2012-07-20","TRTEDT":"2013-01-11","ITTFL":"Y","SAFFL":"Y","EFFFL":"N","COMPLFL":"N"},{"STUDYID":"CDISCPILOT01","USUBJID":"01-703-1258","NDOSE":3,"PARAMCD":"CUMDOSE","AVAL":189,"PARAM":"Cumulative Dose (mg)","EXDURGR1":">168 days","TRTP":"Xanomeline High Dose","TRT01P":"Xanomeline High Dose","TRT01PN":null,"TRT01A":"Xanomeline High Dose","SITEGR1":900,"SITEID":703,"TRTSDT":"2012-07-20","TRTEDT":"2013-01-11","ITTFL":"Y","SAFFL":"Y","EFFFL":"N","COMPLFL":"N"},{"STUDYID":"CDISCPILOT01","USUBJID":"01-703-1258","NDOSE":3,"PARAMCD":"AVGDD","AVAL":1.0739,"PARAM":"Average Daily Dose (mg/day)","EXDURGR1":">168 days","TRTP":"Xanomeline High Dose","TRT01P":"Xanomeline High Dose","TRT01PN":null,"TRT01A":"Xanomeline High Dose","SITEGR1":900,"SITEID":703,"TRTSDT":"2012-07-20","TRTEDT":"2013-01-11","ITTFL":"Y","SAFFL":"Y","EFFFL":"N","COMPLFL":"N"},{"STUDYID":"CDISCPILOT01","USUBJID":"01-703-1279","NDOSE":1,"PARAMCD":"TRTDUR","AVAL":22,"PARAM":"Duration of Exposure (days)","EXDURGR1":"<=30 days","TRTP":"Xanomeline Low Dose","TRT01P":"Xanomeline Low Dose","TRT01PN":null,"TRT01A":"Xanomeline Low Dose","SITEGR1":900,"SITEID":703,"TRTSDT":"2013-05-13","TRTEDT":"2013-06-03","ITTFL":"Y","SAFFL":"Y","EFFFL":"N","COMPLFL":"N"},{"STUDYID":"CDISCPILOT01","USUBJID":"01-703-1279","NDOSE":1,"PARAMCD":"CUMDOSE","AVAL":54,"PARAM":"Cumulative Dose (mg)","EXDURGR1":"<=30 days","TRTP":"Xanomeline Low Dose","TRT01P":"Xanomeline Low Dose","TRT01PN":null,"TRT01A":"Xanomeline Low Dose","SITEGR1":900,"SITEID":703,"TRTSDT":"2013-05-13","TRTEDT":"2013-06-03","ITTFL":"Y","SAFFL":"Y","EFFFL":"N","COMPLFL":"N"},{"STUDYID":"CDISCPILOT01","USUBJID":"01-703-1279","NDOSE":1,"PARAMCD":"AVGDD","AVAL":2.4545,"PARAM":"Average Daily Dose (mg/day)","EXDURGR1":"<=30 days","TRTP":"Xanomeline Low Dose","TRT01P":"Xanomeline Low Dose","TRT01PN":null,"TRT01A":"Xanomeline Low Dose","SITEGR1":900,"SITEID":703,"TRTSDT":"2013-05-13","TRTEDT":"2013-06-03","ITTFL":"Y","SAFFL":"Y","EFFFL":"N","COMPLFL":"N"},{"STUDYID":"CDISCPILOT01","USUBJID":"01-703-1295","NDOSE":2,"PARAMCD":"TRTDUR","AVAL":150,"PARAM":"Duration of Exposure (days)","EXDURGR1":"91-168 days","TRTP":"Xanomeline High Dose","TRT01P":"Xanomeline High Dose","TRT01PN":null,"TRT01A":"Xanomeline High Dose","SITEGR1":900,"SITEID":703,"TRTSDT":"2013-11-21","TRTEDT":"2014-04-19","ITTFL":"Y","SAFFL":"Y","EFFFL":"N","COMPLFL":"N"},{"STUDYID":"CDISCPILOT01","USUBJID":"01-703-1295","NDOSE":2,"PARAMCD":"CUMDOSE","AVAL":135,"PARAM":"Cumulative Dose (mg)","EXDURGR1":"91-168 days","TRTP":"Xanomeline High Dose","TRT01P":"Xanomeline High Dose","TRT01PN":null,"TRT01A":"Xanomeline High Dose","SITEGR1":900,"SITEID":703,"TRTSDT":"2013-11-21","TRTEDT":"2014-04-19","ITTFL":"Y","SAFFL":"Y","EFFFL":"N","COMPLFL":"N"},{"STUDYID":"CDISCPILOT01","USUBJID":"01-703-1295","NDOSE":2,"PARAMCD":"AVGDD","AVAL":0.9,"PARAM":"Average Daily Dose (mg/day)","EXDURGR1":"91-168 days","TRTP":"Xanomeline High Dose","TRT01P":"Xanomeline High Dose","TRT01PN":null,"TRT01A":"Xanomeline High Dose","SITEGR1":900,"SITEID":703,"TRTSDT":"2013-11-21","TRTEDT":"2014-04-19","ITTFL":"Y","SAFFL":"Y","EFFFL":"N","COMPLFL":"N"},{"STUDYID":"CDISCPILOT01","USUBJID":"01-703-1299","NDOSE":3,"PARAMCD":"TRTDUR","AVAL":183,"PARAM":"Duration of Exposure (days)","EXDURGR1":">168 days","TRTP":"Placebo","TRT01P":"Placebo","TRT01PN":null,"TRT01A":"Placebo","SITEGR1":900,"SITEID":703,"TRTSDT":"2012-09-12","TRTEDT":"2013-03-13","ITTFL":"Y","SAFFL":"Y","EFFFL":"N","COMPLFL":"Y"},{"STUDYID":"CDISCPILOT01","USUBJID":"01-703-1299","NDOSE":3,"PARAMCD":"CUMDOSE","AVAL":0,"PARAM":"Cumulative Dose (mg)","EXDURGR1":">168 days","TRTP":"Placebo","TRT01P":"Placebo","TRT01PN":null,"TRT01A":"Placebo","SITEGR1":900,"SITEID":703,"TRTSDT":"2012-09-12","TRTEDT":"2013-03-13","ITTFL":"Y","SAFFL":"Y","EFFFL":"N","COMPLFL":"Y"},{"STUDYID":"CDISCPILOT01","USUBJID":"01-703-1299","NDOSE":3,"PARAMCD":"AVGDD","AVAL":0,"PARAM":"Average Daily Dose (mg/day)","EXDURGR1":">168 days","TRTP":"Placebo","TRT01P":"Placebo","TRT01PN":null,"TRT01A":"Placebo","SITEGR1":900,"SITEID":703,"TRTSDT":"2012-09-12","TRTEDT":"2013-03-13","ITTFL":"Y","SAFFL":"Y","EFFFL":"N","COMPLFL":"Y"},{"STUDYID":"CDISCPILOT01","USUBJID":"01-703-1335","NDOSE":2,"PARAMCD":"TRTDUR","AVAL":52,"PARAM":"Duration of Exposure (days)","EXDURGR1":"31-90 days","TRTP":"Xanomeline High Dose","TRT01P":"Xanomeline High Dose","TRT01PN":null,"TRT01A":"Xanomeline High Dose","SITEGR1":900,"SITEID":703,"TRTSDT":"2014-03-17","TRTEDT":"2014-05-07","ITTFL":"Y","SAFFL":"Y","EFFFL":"N","COMPLFL":"N"},{"STUDYID":"CDISCPILOT01","USUBJID":"01-703-1335","NDOSE":2,"PARAMCD":"CUMDOSE","AVAL":135,"PARAM":"Cumulative Dose (mg)","EXDURGR1":"31-90 days","TRTP":"Xanomeline High Dose","TRT01P":"Xanomeline High Dose","TRT01PN":null,"TRT01A":"Xanomeline High Dose","SITEGR1":900,"SITEID":703,"TRTSDT":"2014-03-17","TRTEDT":"2014-05-07","ITTFL":"Y","SAFFL":"Y","EFFFL":"N","COMPLFL":"N"},{"STUDYID":"CDISCPILOT01","USUBJID":"01-703-1335","NDOSE":2,"PARAMCD":"AVGDD","AVAL":2.5962,"PARAM":"Average Daily Dose (mg/day)","EXDURGR1":"31-90 days","TRTP":"Xanomeline High Dose","TRT01P":"Xanomeline High Dose","TRT01PN":null,"TRT01A":"Xanomeline High Dose","SITEGR1":900,"SITEID":703,"TRTSDT":"2014-03-17","TRTEDT":"2014-05-07","ITTFL":"Y","SAFFL":"Y","EFFFL":"N","COMPLFL":"N"},{"STUDYID":"CDISCPILOT01","USUBJID":"01-703-1379","NDOSE":3,"PARAMCD":"TRTDUR","AVAL":181,"PARAM":"Duration of Exposure (days)","EXDURGR1":">168 days","TRTP":"Xanomeline Low Dose","TRT01P":"Xanomeline Low Dose","TRT01PN":null,"TRT01A":"Xanomeline Low Dose","SITEGR1":900,"SITEID":703,"TRTSDT":"2013-09-22","TRTEDT":"2014-03-21","ITTFL":"Y","SAFFL":"Y","EFFFL":"N","COMPLFL":"Y"},{"STUDYID":"CDISCPILOT01","USUBJID":"01-703-1379","NDOSE":3,"PARAMCD":"CUMDOSE","AVAL":162,"PARAM":"Cumulative Dose (mg)","EXDURGR1":">168 days","TRTP":"Xanomeline Low Dose","TRT01P":"Xanomeline Low Dose","TRT01PN":null,"TRT01A":"Xanomeline Low Dose","SITEGR1":900,"SITEID":703,"TRTSDT":"2013-09-22","TRTEDT":"2014-03-21","ITTFL":"Y","SAFFL":"Y","EFFFL":"N","COMPLFL":"Y"},{"STUDYID":"CDISCPILOT01","USUBJID":"01-703-1379","NDOSE":3,"PARAMCD":"AVGDD","AVAL":0.895,"PARAM":"Average Daily Dose (mg/day)","EXDURGR1":">168 days","TRTP":"Xanomeline Low Dose","TRT01P":"Xanomeline Low Dose","TRT01PN":null,"TRT01A":"Xanomeline Low Dose","SITEGR1":900,"SITEID":703,"TRTSDT":"2013-09-22","TRTEDT":"2014-03-21","ITTFL":"Y","SAFFL":"Y","EFFFL":"N","COMPLFL":"Y"},{"STUDYID":"CDISCPILOT01","USUBJID":"01-703-1403","NDOSE":1,"PARAMCD":"TRTDUR","AVAL":2,"PARAM":"Duration of Exposure (days)","EXDURGR1":"<=30 days","TRTP":"Xanomeline High Dose","TRT01P":"Xanomeline High Dose","TRT01PN":null,"TRT01A":"Xanomeline Low Dose","SITEGR1":900,"SITEID":703,"TRTSDT":"2012-12-12","TRTEDT":"2012-12-13","ITTFL":"Y","SAFFL":"Y","EFFFL":"N","COMPLFL":"N"},{"STUDYID":"CDISCPILOT01","USUBJID":"01-703-1403","NDOSE":1,"PARAMCD":"CUMDOSE","AVAL":54,"PARAM":"Cumulative Dose (mg)","EXDURGR1":"<=30 days","TRTP":"Xanomeline High Dose","TRT01P":"Xanomeline High Dose","TRT01PN":null,"TRT01A":"Xanomeline Low Dose","SITEGR1":900,"SITEID":703,"TRTSDT":"2012-12-12","TRTEDT":"2012-12-13","ITTFL":"Y","SAFFL":"Y","EFFFL":"N","COMPLFL":"N"},{"STUDYID":"CDISCPILOT01","USUBJID":"01-703-1403","NDOSE":1,"PARAMCD":"AVGDD","AVAL":27,"PARAM":"Average Daily Dose (mg/day)","EXDURGR1":"<=30 days","TRTP":"Xanomeline High Dose","TRT01P":"Xanomeline High Dose","TRT01PN":null,"TRT01A":"Xanomeline Low Dose","SITEGR1":900,"SITEID":703,"TRTSDT":"2012-12-12","TRTEDT":"2012-12-13","ITTFL":"Y","SAFFL":"Y","EFFFL":"N","COMPLFL":"N"},{"STUDYID":"CDISCPILOT01","USUBJID":"01-703-1439","NDOSE":3,"PARAMCD":"TRTDUR","AVAL":184,"PARAM":"Duration of Exposure (days)","EXDURGR1":">168 days","TRTP":"Xanomeline High Dose","TRT01P":"Xanomeline High Dose","TRT01PN":null,"TRT01A":"Xanomeline High Dose","SITEGR1":900,"SITEID":703,"TRTSDT":"2014-03-12","TRTEDT":"2014-09-11","ITTFL":"Y","SAFFL":"Y","EFFFL":"N","COMPLFL":"Y"},{"STUDYID":"CDISCPILOT01","USUBJID":"01-703-1439","NDOSE":3,"PARAMCD":"CUMDOSE","AVAL":189,"PARAM":"Cumulative Dose (mg)","EXDURGR1":">168 days","TRTP":"Xanomeline High Dose","TRT01P":"Xanomeline High Dose","TRT01PN":null,"TRT01A":"Xanomeline High Dose","SITEGR1":900,"SITEID":703,"TRTSDT":"2014-03-12","TRTEDT":"2014-09-11","ITTFL":"Y","SAFFL":"Y","EFFFL":"N","COMPLFL":"Y"},{"STUDYID":"CDISCPILOT01","USUBJID":"01-703-1439","NDOSE":3,"PARAMCD":"AVGDD","AVAL":1.0272,"PARAM":"Average Daily Dose (mg/day)","EXDURGR1":">168 days","TRTP":"Xanomeline High Dose","TRT01P":"Xanomeline High Dose","TRT01PN":null,"TRT01A":"Xanomeline High Dose","SITEGR1":900,"SITEID":703,"TRTSDT":"2014-03-12","TRTEDT":"2014-09-11","ITTFL":"Y","SAFFL":"Y","EFFFL":"N","COMPLFL":"Y"},{"STUDYID":"CDISCPILOT01","USUBJID":"01-704-1008","NDOSE":2,"PARAMCD":"TRTDUR","AVAL":40,"PARAM":"Duration of Exposure (days)","EXDURGR1":"31-90 days","TRTP":"Xanomeline High Dose","TRT01P":"Xanomeline High Dose","TRT01PN":null,"TRT01A":"Xanomeline High Dose","SITEGR1":900,"SITEID":704,"TRTSDT":"2013-01-13","TRTEDT":"2013-02-21","ITTFL":"Y","SAFFL":"Y","EFFFL":"N","COMPLFL":"N"},{"STUDYID":"CDISCPILOT01","USUBJID":"01-704-1008","NDOSE":2,"PARAMCD":"CUMDOSE","AVAL":135,"PARAM":"Cumulative Dose (mg)","EXDURGR1":"31-90 days","TRTP":"Xanomeline High Dose","TRT01P":"Xanomeline High Dose","TRT01PN":null,"TRT01A":"Xanomeline High Dose","SITEGR1":900,"SITEID":704,"TRTSDT":"2013-01-13","TRTEDT":"2013-02-21","ITTFL":"Y","SAFFL":"Y","EFFFL":"N","COMPLFL":"N"},{"STUDYID":"CDISCPILOT01","USUBJID":"01-704-1008","NDOSE":2,"PARAMCD":"AVGDD","AVAL":3.375,"PARAM":"Average Daily Dose (mg/day)","EXDURGR1":"31-90 days","TRTP":"Xanomeline High Dose","TRT01P":"Xanomeline High Dose","TRT01PN":null,"TRT01A":"Xanomeline High Dose","SITEGR1":900,"SITEID":704,"TRTSDT":"2013-01-13","TRTEDT":"2013-02-21","ITTFL":"Y","SAFFL":"Y","EFFFL":"N","COMPLFL":"N"},{"STUDYID":"CDISCPILOT01","USUBJID":"01-704-1009","NDOSE":2,"PARAMCD":"TRTDUR","AVAL":30,"PARAM":"Duration of Exposure (days)","EXDURGR1":"<=30 days","TRTP":"Xanomeline Low Dose","TRT01P":"Xanomeline Low Dose","TRT01PN":null,"TRT01A":"Xanomeline Low Dose","SITEGR1":900,"SITEID":704,"TRTSDT":"2013-08-27","TRTEDT":"2013-09-25","ITTFL":"Y","SAFFL":"Y","EFFFL":"N","COMPLFL":"N"},{"STUDYID":"CDISCPILOT01","USUBJID":"01-704-1009","NDOSE":2,"PARAMCD":"CUMDOSE","AVAL":108,"PARAM":"Cumulative Dose (mg)","EXDURGR1":"<=30 days","TRTP":"Xanomeline Low Dose","TRT01P":"Xanomeline Low Dose","TRT01PN":null,"TRT01A":"Xanomeline Low Dose","SITEGR1":900,"SITEID":704,"TRTSDT":"2013-08-27","TRTEDT":"2013-09-25","ITTFL":"Y","SAFFL":"Y","EFFFL":"N","COMPLFL":"N"},{"STUDYID":"CDISCPILOT01","USUBJID":"01-704-1009","NDOSE":2,"PARAMCD":"AVGDD","AVAL":3.6,"PARAM":"Average Daily Dose (mg/day)","EXDURGR1":"<=30 days","TRTP":"Xanomeline Low Dose","TRT01P":"Xanomeline Low Dose","TRT01PN":null,"TRT01A":"Xanomeline Low Dose","SITEGR1":900,"SITEID":704,"TRTSDT":"2013-08-27","TRTEDT":"2013-09-25","ITTFL":"Y","SAFFL":"Y","EFFFL":"N","COMPLFL":"N"},{"STUDYID":"CDISCPILOT01","USUBJID":"01-704-1010","NDOSE":2,"PARAMCD":"TRTDUR","AVAL":138,"PARAM":"Duration of Exposure (days)","EXDURGR1":"91-168 days","TRTP":"Placebo","TRT01P":"Placebo","TRT01PN":null,"TRT01A":"Placebo","SITEGR1":900,"SITEID":704,"TRTSDT":"2014-02-21","TRTEDT":"2014-07-08","ITTFL":"Y","SAFFL":"Y","EFFFL":"N","COMPLFL":"N"},{"STUDYID":"CDISCPILOT01","USUBJID":"01-704-1010","NDOSE":2,"PARAMCD":"CUMDOSE","AVAL":0,"PARAM":"Cumulative Dose (mg)","EXDURGR1":"91-168 days","TRTP":"Placebo","TRT01P":"Placebo","TRT01PN":null,"TRT01A":"Placebo","SITEGR1":900,"SITEID":704,"TRTSDT":"2014-02-21","TRTEDT":"2014-07-08","ITTFL":"Y","SAFFL":"Y","EFFFL":"N","COMPLFL":"N"},{"STUDYID":"CDISCPILOT01","USUBJID":"01-704-1010","NDOSE":2,"PARAMCD":"AVGDD","AVAL":0,"PARAM":"Average Daily Dose (mg/day)","EXDURGR1":"91-168 days","TRTP":"Placebo","TRT01P":"Placebo","TRT01PN":null,"TRT01A":"Placebo","SITEGR1":900,"SITEID":704,"TRTSDT":"2014-02-21","TRTEDT":"2014-07-08","ITTFL":"Y","SAFFL":"Y","EFFFL":"N","COMPLFL":"N"},{"STUDYID":"CDISCPILOT01","USUBJID":"01-704-1017","NDOSE":2,"PARAMCD":"TRTDUR","AVAL":44,"PARAM":"Duration of Exposure (days)","EXDURGR1":"31-90 days","TRTP":"Xanomeline High Dose","TRT01P":"Xanomeline High Dose","TRT01PN":null,"TRT01A":"Xanomeline High Dose","SITEGR1":900,"SITEID":704,"TRTSDT":"2013-10-06","TRTEDT":"2013-11-18","ITTFL":"Y","SAFFL":"Y","EFFFL":"N","COMPLFL":"N"},{"STUDYID":"CDISCPILOT01","USUBJID":"01-704-1017","NDOSE":2,"PARAMCD":"CUMDOSE","AVAL":135,"PARAM":"Cumulative Dose (mg)","EXDURGR1":"31-90 days","TRTP":"Xanomeline High Dose","TRT01P":"Xanomeline High Dose","TRT01PN":null,"TRT01A":"Xanomeline High Dose","SITEGR1":900,"SITEID":704,"TRTSDT":"2013-10-06","TRTEDT":"2013-11-18","ITTFL":"Y","SAFFL":"Y","EFFFL":"N","COMPLFL":"N"},{"STUDYID":"CDISCPILOT01","USUBJID":"01-704-1017","NDOSE":2,"PARAMCD":"AVGDD","AVAL":3.0682,"PARAM":"Average Daily Dose (mg/day)","EXDURGR1":"31-90 days","TRTP":"Xanomeline High Dose","TRT01P":"Xanomeline High Dose","TRT01PN":null,"TRT01A":"Xanomeline High Dose","SITEGR1":900,"SITEID":704,"TRTSDT":"2013-10-06","TRTEDT":"2013-11-18","ITTFL":"Y","SAFFL":"Y","EFFFL":"N","COMPLFL":"N"},{"STUDYID":"CDISCPILOT01","USUBJID":"01-704-1025","NDOSE":2,"PARAMCD":"TRTDUR","AVAL":28,"PARAM":"Duration of Exposure (days)","EXDURGR1":"<=30 days","TRTP":"Xanomeline Low Dose","TRT01P":"Xanomeline Low Dose","TRT01PN":null,"TRT01A":"Xanomeline Low Dose","SITEGR1":900,"SITEID":704,"TRTSDT":"2013-09-27","TRTEDT":"2013-10-24","ITTFL":"Y","SAFFL":"Y","EFFFL":"N","COMPLFL":"N"},{"STUDYID":"CDISCPILOT01","USUBJID":"01-704-1025","NDOSE":2,"PARAMCD":"CUMDOSE","AVAL":108,"PARAM":"Cumulative Dose (mg)","EXDURGR1":"<=30 days","TRTP":"Xanomeline Low Dose","TRT01P":"Xanomeline Low Dose","TRT01PN":null,"TRT01A":"Xanomeline Low Dose","SITEGR1":900,"SITEID":704,"TRTSDT":"2013-09-27","TRTEDT":"2013-10-24","ITTFL":"Y","SAFFL":"Y","EFFFL":"N","COMPLFL":"N"},{"STUDYID":"CDISCPILOT01","USUBJID":"01-704-1025","NDOSE":2,"PARAMCD":"AVGDD","AVAL":3.8571,"PARAM":"Average Daily Dose (mg/day)","EXDURGR1":"<=30 days","TRTP":"Xanomeline Low Dose","TRT01P":"Xanomeline Low Dose","TRT01PN":null,"TRT01A":"Xanomeline Low Dose","SITEGR1":900,"SITEID":704,"TRTSDT":"2013-09-27","TRTEDT":"2013-10-24","ITTFL":"Y","SAFFL":"Y","EFFFL":"N","COMPLFL":"N"},{"STUDYID":"CDISCPILOT01","USUBJID":"01-704-1065","NDOSE":2,"PARAMCD":"TRTDUR","AVAL":60,"PARAM":"Duration of Exposure (days)","EXDURGR1":"31-90 days","TRTP":"Xanomeline High Dose","TRT01P":"Xanomeline High Dose","TRT01PN":null,"TRT01A":"Xanomeline High Dose","SITEGR1":900,"SITEID":704,"TRTSDT":"2013-10-24","TRTEDT":"2013-12-22","ITTFL":"Y","SAFFL":"Y","EFFFL":"N","COMPLFL":"N"},{"STUDYID":"CDISCPILOT01","USUBJID":"01-704-1065","NDOSE":2,"PARAMCD":"CUMDOSE","AVAL":135,"PARAM":"Cumulative Dose (mg)","EXDURGR1":"31-90 days","TRTP":"Xanomeline High Dose","TRT01P":"Xanomeline High Dose","TRT01PN":null,"TRT01A":"Xanomeline High Dose","SITEGR1":900,"SITEID":704,"TRTSDT":"2013-10-24","TRTEDT":"2013-12-22","ITTFL":"Y","SAFFL":"Y","EFFFL":"N","COMPLFL":"N"},{"STUDYID":"CDISCPILOT01","USUBJID":"01-704-1065","NDOSE":2,"PARAMCD":"AVGDD","AVAL":2.25,"PARAM":"Average Daily Dose (mg/day)","EXDURGR1":"31-90 days","TRTP":"Xanomeline High Dose","TRT01P":"Xanomeline High Dose","TRT01PN":null,"TRT01A":"Xanomeline High Dose","SITEGR1":900,"SITEID":704,"TRTSDT":"2013-10-24","TRTEDT":"2013-12-22","ITTFL":"Y","SAFFL":"Y","EFFFL":"N","COMPLFL":"N"},{"STUDYID":"CDISCPILOT01","USUBJID":"01-704-1074","NDOSE":2,"PARAMCD":"TRTDUR","AVAL":58,"PARAM":"Duration of Exposure (days)","EXDURGR1":"31-90 days","TRTP":"Xanomeline High Dose","TRT01P":"Xanomeline High Dose","TRT01PN":null,"TRT01A":"Xanomeline High Dose","SITEGR1":900,"SITEID":704,"TRTSDT":"2014-01-22","TRTEDT":"2014-03-20","ITTFL":"Y","SAFFL":"Y","EFFFL":"N","COMPLFL":"N"},{"STUDYID":"CDISCPILOT01","USUBJID":"01-704-1074","NDOSE":2,"PARAMCD":"CUMDOSE","AVAL":135,"PARAM":"Cumulative Dose (mg)","EXDURGR1":"31-90 days","TRTP":"Xanomeline High Dose","TRT01P":"Xanomeline High Dose","TRT01PN":null,"TRT01A":"Xanomeline High Dose","SITEGR1":900,"SITEID":704,"TRTSDT":"2014-01-22","TRTEDT":"2014-03-20","ITTFL":"Y","SAFFL":"Y","EFFFL":"N","COMPLFL":"N"},{"STUDYID":"CDISCPILOT01","USUBJID":"01-704-1074","NDOSE":2,"PARAMCD":"AVGDD","AVAL":2.3276,"PARAM":"Average Daily Dose (mg/day)","EXDURGR1":"31-90 days","TRTP":"Xanomeline High Dose","TRT01P":"Xanomeline High Dose","TRT01PN":null,"TRT01A":"Xanomeline High Dose","SITEGR1":900,"SITEID":704,"TRTSDT":"2014-01-22","TRTEDT":"2014-03-20","ITTFL":"Y","SAFFL":"Y","EFFFL":"N","COMPLFL":"N"},{"STUDYID":"CDISCPILOT01","USUBJID":"01-704-1093","NDOSE":2,"PARAMCD":"TRTDUR","AVAL":95,"PARAM":"Duration of Exposure (days)","EXDURGR1":"91-168 days","TRTP":"Xanomeline High Dose","TRT01P":"Xanomeline High Dose","TRT01PN":null,"TRT01A":"Xanomeline High Dose","SITEGR1":900,"SITEID":704,"TRTSDT":"2013-03-15","TRTEDT":"2013-06-17","ITTFL":"Y","SAFFL":"Y","EFFFL":"N","COMPLFL":"N"},{"STUDYID":"CDISCPILOT01","USUBJID":"01-704-1093","NDOSE":2,"PARAMCD":"CUMDOSE","AVAL":135,"PARAM":"Cumulative Dose (mg)","EXDURGR1":"91-168 days","TRTP":"Xanomeline High Dose","TRT01P":"Xanomeline High Dose","TRT01PN":null,"TRT01A":"Xanomeline High Dose","SITEGR1":900,"SITEID":704,"TRTSDT":"2013-03-15","TRTEDT":"2013-06-17","ITTFL":"Y","SAFFL":"Y","EFFFL":"N","COMPLFL":"N"},{"STUDYID":"CDISCPILOT01","USUBJID":"01-704-1093","NDOSE":2,"PARAMCD":"AVGDD","AVAL":1.4211,"PARAM":"Average Daily Dose (mg/day)","EXDURGR1":"91-168 days","TRTP":"Xanomeline High Dose","TRT01P":"Xanomeline High Dose","TRT01PN":null,"TRT01A":"Xanomeline High Dose","SITEGR1":900,"SITEID":704,"TRTSDT":"2013-03-15","TRTEDT":"2013-06-17","ITTFL":"Y","SAFFL":"Y","EFFFL":"N","COMPLFL":"N"},{"STUDYID":"CDISCPILOT01","USUBJID":"01-704-1114","NDOSE":2,"PARAMCD":"TRTDUR","AVAL":166,"PARAM":"Duration of Exposure (days)","EXDURGR1":"91-168 days","TRTP":"Xanomeline Low Dose","TRT01P":"Xanomeline Low Dose","TRT01PN":null,"TRT01A":"Xanomeline Low Dose","SITEGR1":900,"SITEID":704,"TRTSDT":"2013-01-23","TRTEDT":"2013-07-07","ITTFL":"Y","SAFFL":"Y","EFFFL":"N","COMPLFL":"N"},{"STUDYID":"CDISCPILOT01","USUBJID":"01-704-1114","NDOSE":2,"PARAMCD":"CUMDOSE","AVAL":108,"PARAM":"Cumulative Dose (mg)","EXDURGR1":"91-168 days","TRTP":"Xanomeline Low Dose","TRT01P":"Xanomeline Low Dose","TRT01PN":null,"TRT01A":"Xanomeline Low Dose","SITEGR1":900,"SITEID":704,"TRTSDT":"2013-01-23","TRTEDT":"2013-07-07","ITTFL":"Y","SAFFL":"Y","EFFFL":"N","COMPLFL":"N"},{"STUDYID":"CDISCPILOT01","USUBJID":"01-704-1114","NDOSE":2,"PARAMCD":"AVGDD","AVAL":0.6506,"PARAM":"Average Daily Dose (mg/day)","EXDURGR1":"91-168 days","TRTP":"Xanomeline Low Dose","TRT01P":"Xanomeline Low Dose","TRT01PN":null,"TRT01A":"Xanomeline Low Dose","SITEGR1":900,"SITEID":704,"TRTSDT":"2013-01-23","TRTEDT":"2013-07-07","ITTFL":"Y","SAFFL":"Y","EFFFL":"N","COMPLFL":"N"},{"STUDYID":"CDISCPILOT01","USUBJID":"01-704-1120","NDOSE":2,"PARAMCD":"TRTDUR","AVAL":62,"PARAM":"Duration of Exposure (days)","EXDURGR1":"31-90 days","TRTP":"Xanomeline Low Dose","TRT01P":"Xanomeline Low Dose","TRT01PN":null,"TRT01A":"Xanomeline Low Dose","SITEGR1":900,"SITEID":704,"TRTSDT":"2013-12-02","TRTEDT":"2014-02-01","ITTFL":"Y","SAFFL":"Y","EFFFL":"N","COMPLFL":"N"},{"STUDYID":"CDISCPILOT01","USUBJID":"01-704-1120","NDOSE":2,"PARAMCD":"CUMDOSE","AVAL":108,"PARAM":"Cumulative Dose (mg)","EXDURGR1":"31-90 days","TRTP":"Xanomeline Low Dose","TRT01P":"Xanomeline Low Dose","TRT01PN":null,"TRT01A":"Xanomeline Low Dose","SITEGR1":900,"SITEID":704,"TRTSDT":"2013-12-02","TRTEDT":"2014-02-01","ITTFL":"Y","SAFFL":"Y","EFFFL":"N","COMPLFL":"N"},{"STUDYID":"CDISCPILOT01","USUBJID":"01-704-1120","NDOSE":2,"PARAMCD":"AVGDD","AVAL":1.7419,"PARAM":"Average Daily Dose (mg/day)","EXDURGR1":"31-90 days","TRTP":"Xanomeline Low Dose","TRT01P":"Xanomeline Low Dose","TRT01PN":null,"TRT01A":"Xanomeline Low Dose","SITEGR1":900,"SITEID":704,"TRTSDT":"2013-12-02","TRTEDT":"2014-02-01","ITTFL":"Y","SAFFL":"Y","EFFFL":"N","COMPLFL":"N"},{"STUDYID":"CDISCPILOT01","USUBJID":"01-704-1127","NDOSE":3,"PARAMCD":"TRTDUR","AVAL":181,"PARAM":"Duration of Exposure (days)","EXDURGR1":">168 days","TRTP":"Placebo","TRT01P":"Placebo","TRT01PN":null,"TRT01A":"Placebo","SITEGR1":900,"SITEID":704,"TRTSDT":"2013-10-02","TRTEDT":"2014-03-31","ITTFL":"Y","SAFFL":"Y","EFFFL":"N","COMPLFL":"Y"},{"STUDYID":"CDISCPILOT01","USUBJID":"01-704-1127","NDOSE":3,"PARAMCD":"CUMDOSE","AVAL":0,"PARAM":"Cumulative Dose (mg)","EXDURGR1":">168 days","TRTP":"Placebo","TRT01P":"Placebo","TRT01PN":null,"TRT01A":"Placebo","SITEGR1":900,"SITEID":704,"TRTSDT":"2013-10-02","TRTEDT":"2014-03-31","ITTFL":"Y","SAFFL":"Y","EFFFL":"N","COMPLFL":"Y"},{"STUDYID":"CDISCPILOT01","USUBJID":"01-704-1127","NDOSE":3,"PARAMCD":"AVGDD","AVAL":0,"PARAM":"Average Daily Dose (mg/day)","EXDURGR1":">168 days","TRTP":"Placebo","TRT01P":"Placebo","TRT01PN":null,"TRT01A":"Placebo","SITEGR1":900,"SITEID":704,"TRTSDT":"2013-10-02","TRTEDT":"2014-03-31","ITTFL":"Y","SAFFL":"Y","EFFFL":"N","COMPLFL":"Y"},{"STUDYID":"CDISCPILOT01","USUBJID":"01-704-1135","NDOSE":3,"PARAMCD":"TRTDUR","AVAL":198,"PARAM":"Duration of Exposure (days)","EXDURGR1":">168 days","TRTP":"Xanomeline Low Dose","TRT01P":"Xanomeline Low Dose","TRT01PN":null,"TRT01A":"Xanomeline Low Dose","SITEGR1":900,"SITEID":704,"TRTSDT":"2013-10-31","TRTEDT":"2014-05-16","ITTFL":"Y","SAFFL":"Y","EFFFL":"N","COMPLFL":"Y"},{"STUDYID":"CDISCPILOT01","USUBJID":"01-704-1135","NDOSE":3,"PARAMCD":"CUMDOSE","AVAL":162,"PARAM":"Cumulative Dose (mg)","EXDURGR1":">168 days","TRTP":"Xanomeline Low Dose","TRT01P":"Xanomeline Low Dose","TRT01PN":null,"TRT01A":"Xanomeline Low Dose","SITEGR1":900,"SITEID":704,"TRTSDT":"2013-10-31","TRTEDT":"2014-05-16","ITTFL":"Y","SAFFL":"Y","EFFFL":"N","COMPLFL":"Y"},{"STUDYID":"CDISCPILOT01","USUBJID":"01-704-1135","NDOSE":3,"PARAMCD":"AVGDD","AVAL":0.8182,"PARAM":"Average Daily Dose (mg/day)","EXDURGR1":">168 days","TRTP":"Xanomeline Low Dose","TRT01P":"Xanomeline Low Dose","TRT01PN":null,"TRT01A":"Xanomeline Low Dose","SITEGR1":900,"SITEID":704,"TRTSDT":"2013-10-31","TRTEDT":"2014-05-16","ITTFL":"Y","SAFFL":"Y","EFFFL":"N","COMPLFL":"Y"},{"STUDYID":"CDISCPILOT01","USUBJID":"01-704-1164","NDOSE":3,"PARAMCD":"TRTDUR","AVAL":198,"PARAM":"Duration of Exposure (days)","EXDURGR1":">168 days","TRTP":"Placebo","TRT01P":"Placebo","TRT01PN":null,"TRT01A":"Placebo","SITEGR1":900,"SITEID":704,"TRTSDT":"2012-09-19","TRTEDT":"2013-04-04","ITTFL":"Y","SAFFL":"Y","EFFFL":"N","COMPLFL":"Y"},{"STUDYID":"CDISCPILOT01","USUBJID":"01-704-1164","NDOSE":3,"PARAMCD":"CUMDOSE","AVAL":0,"PARAM":"Cumulative Dose (mg)","EXDURGR1":">168 days","TRTP":"Placebo","TRT01P":"Placebo","TRT01PN":null,"TRT01A":"Placebo","SITEGR1":900,"SITEID":704,"TRTSDT":"2012-09-19","TRTEDT":"2013-04-04","ITTFL":"Y","SAFFL":"Y","EFFFL":"N","COMPLFL":"Y"},{"STUDYID":"CDISCPILOT01","USUBJID":"01-704-1164","NDOSE":3,"PARAMCD":"AVGDD","AVAL":0,"PARAM":"Average Daily Dose (mg/day)","EXDURGR1":">168 days","TRTP":"Placebo","TRT01P":"Placebo","TRT01PN":null,"TRT01A":"Placebo","SITEGR1":900,"SITEID":704,"TRTSDT":"2012-09-19","TRTEDT":"2013-04-04","ITTFL":"Y","SAFFL":"Y","EFFFL":"N","COMPLFL":"Y"},{"STUDYID":"CDISCPILOT01","USUBJID":"01-704-1218","NDOSE":3,"PARAMCD":"TRTDUR","AVAL":190,"PARAM":"Duration of Exposure (days)","EXDURGR1":">168 days","TRTP":"Xanomeline Low Dose","TRT01P":"Xanomeline Low Dose","TRT01PN":null,"TRT01A":"Xanomeline Low Dose","SITEGR1":900,"SITEID":704,"TRTSDT":"2012-11-19","TRTEDT":"2013-05-27","ITTFL":"Y","SAFFL":"Y","EFFFL":"N","COMPLFL":"Y"},{"STUDYID":"CDISCPILOT01","USUBJID":"01-704-1218","NDOSE":3,"PARAMCD":"CUMDOSE","AVAL":162,"PARAM":"Cumulative Dose (mg)","EXDURGR1":">168 days","TRTP":"Xanomeline Low Dose","TRT01P":"Xanomeline Low Dose","TRT01PN":null,"TRT01A":"Xanomeline Low Dose","SITEGR1":900,"SITEID":704,"TRTSDT":"2012-11-19","TRTEDT":"2013-05-27","ITTFL":"Y","SAFFL":"Y","EFFFL":"N","COMPLFL":"Y"},{"STUDYID":"CDISCPILOT01","USUBJID":"01-704-1218","NDOSE":3,"PARAMCD":"AVGDD","AVAL":0.8526,"PARAM":"Average Daily Dose (mg/day)","EXDURGR1":">168 days","TRTP":"Xanomeline Low Dose","TRT01P":"Xanomeline Low Dose","TRT01PN":null,"TRT01A":"Xanomeline Low Dose","SITEGR1":900,"SITEID":704,"TRTSDT":"2012-11-19","TRTEDT":"2013-05-27","ITTFL":"Y","SAFFL":"Y","EFFFL":"N","COMPLFL":"Y"},{"STUDYID":"CDISCPILOT01","USUBJID":"01-704-1233","NDOSE":2,"PARAMCD":"TRTDUR","AVAL":15,"PARAM":"Duration of Exposure (days)","EXDURGR1":"<=30 days","TRTP":"Placebo","TRT01P":"Placebo","TRT01PN":null,"TRT01A":"Placebo","SITEGR1":900,"SITEID":704,"TRTSDT":"2013-03-21","TRTEDT":"2013-04-04","ITTFL":"Y","SAFFL":"Y","EFFFL":"N","COMPLFL":"N"},{"STUDYID":"CDISCPILOT01","USUBJID":"01-704-1233","NDOSE":2,"PARAMCD":"CUMDOSE","AVAL":0,"PARAM":"Cumulative Dose (mg)","EXDURGR1":"<=30 days","TRTP":"Placebo","TRT01P":"Placebo","TRT01PN":null,"TRT01A":"Placebo","SITEGR1":900,"SITEID":704,"TRTSDT":"2013-03-21","TRTEDT":"2013-04-04","ITTFL":"Y","SAFFL":"Y","EFFFL":"N","COMPLFL":"N"},{"STUDYID":"CDISCPILOT01","USUBJID":"01-704-1233","NDOSE":2,"PARAMCD":"AVGDD","AVAL":0,"PARAM":"Average Daily Dose (mg/day)","EXDURGR1":"<=30 days","TRTP":"Placebo","TRT01P":"Placebo","TRT01PN":null,"TRT01A":"Placebo","SITEGR1":900,"SITEID":704,"TRTSDT":"2013-03-21","TRTEDT":"2013-04-04","ITTFL":"Y","SAFFL":"Y","EFFFL":"N","COMPLFL":"N"},{"STUDYID":"CDISCPILOT01","USUBJID":"01-704-1241","NDOSE":2,"PARAMCD":"TRTDUR","AVAL":46,"PARAM":"Duration of Exposure (days)","EXDURGR1":"31-90 days","TRTP":"Xanomeline High Dose","TRT01P":"Xanomeline High Dose","TRT01PN":null,"TRT01A":"Xanomeline High Dose","SITEGR1":900,"SITEID":704,"TRTSDT":"2013-08-25","TRTEDT":"2013-10-09","ITTFL":"Y","SAFFL":"Y","EFFFL":"N","COMPLFL":"N"},{"STUDYID":"CDISCPILOT01","USUBJID":"01-704-1241","NDOSE":2,"PARAMCD":"CUMDOSE","AVAL":135,"PARAM":"Cumulative Dose (mg)","EXDURGR1":"31-90 days","TRTP":"Xanomeline High Dose","TRT01P":"Xanomeline High Dose","TRT01PN":null,"TRT01A":"Xanomeline High Dose","SITEGR1":900,"SITEID":704,"TRTSDT":"2013-08-25","TRTEDT":"2013-10-09","ITTFL":"Y","SAFFL":"Y","EFFFL":"N","COMPLFL":"N"},{"STUDYID":"CDISCPILOT01","USUBJID":"01-704-1241","NDOSE":2,"PARAMCD":"AVGDD","AVAL":2.9348,"PARAM":"Average Daily Dose (mg/day)","EXDURGR1":"31-90 days","TRTP":"Xanomeline High Dose","TRT01P":"Xanomeline High Dose","TRT01PN":null,"TRT01A":"Xanomeline High Dose","SITEGR1":900,"SITEID":704,"TRTSDT":"2013-08-25","TRTEDT":"2013-10-09","ITTFL":"Y","SAFFL":"Y","EFFFL":"N","COMPLFL":"N"},{"STUDYID":"CDISCPILOT01","USUBJID":"01-704-1260","NDOSE":2,"PARAMCD":"TRTDUR","AVAL":67,"PARAM":"Duration of Exposure (days)","EXDURGR1":"31-90 days","TRTP":"Placebo","TRT01P":"Placebo","TRT01PN":null,"TRT01A":"Placebo","SITEGR1":900,"SITEID":704,"TRTSDT":"2012-08-30","TRTEDT":"2012-11-04","ITTFL":"Y","SAFFL":"Y","EFFFL":"N","COMPLFL":"N"},{"STUDYID":"CDISCPILOT01","USUBJID":"01-704-1260","NDOSE":2,"PARAMCD":"CUMDOSE","AVAL":0,"PARAM":"Cumulative Dose (mg)","EXDURGR1":"31-90 days","TRTP":"Placebo","TRT01P":"Placebo","TRT01PN":null,"TRT01A":"Placebo","SITEGR1":900,"SITEID":704,"TRTSDT":"2012-08-30","TRTEDT":"2012-11-04","ITTFL":"Y","SAFFL":"Y","EFFFL":"N","COMPLFL":"N"},{"STUDYID":"CDISCPILOT01","USUBJID":"01-704-1260","NDOSE":2,"PARAMCD":"AVGDD","AVAL":0,"PARAM":"Average Daily Dose (mg/day)","EXDURGR1":"31-90 days","TRTP":"Placebo","TRT01P":"Placebo","TRT01PN":null,"TRT01A":"Placebo","SITEGR1":900,"SITEID":704,"TRTSDT":"2012-08-30","TRTEDT":"2012-11-04","ITTFL":"Y","SAFFL":"Y","EFFFL":"N","COMPLFL":"N"},{"STUDYID":"CDISCPILOT01","USUBJID":"01-704-1266","NDOSE":2,"PARAMCD":"TRTDUR","AVAL":55,"PARAM":"Duration of Exposure (days)","EXDURGR1":"31-90 days","TRTP":"Xanomeline High Dose","TRT01P":"Xanomeline High Dose","TRT01PN":null,"TRT01A":"Xanomeline High Dose","SITEGR1":900,"SITEID":704,"TRTSDT":"2013-10-13","TRTEDT":"2013-12-06","ITTFL":"Y","SAFFL":"Y","EFFFL":"N","COMPLFL":"N"},{"STUDYID":"CDISCPILOT01","USUBJID":"01-704-1266","NDOSE":2,"PARAMCD":"CUMDOSE","AVAL":135,"PARAM":"Cumulative Dose (mg)","EXDURGR1":"31-90 days","TRTP":"Xanomeline High Dose","TRT01P":"Xanomeline High Dose","TRT01PN":null,"TRT01A":"Xanomeline High Dose","SITEGR1":900,"SITEID":704,"TRTSDT":"2013-10-13","TRTEDT":"2013-12-06","ITTFL":"Y","SAFFL":"Y","EFFFL":"N","COMPLFL":"N"},{"STUDYID":"CDISCPILOT01","USUBJID":"01-704-1266","NDOSE":2,"PARAMCD":"AVGDD","AVAL":2.4545,"PARAM":"Average Daily Dose (mg/day)","EXDURGR1":"31-90 days","TRTP":"Xanomeline High Dose","TRT01P":"Xanomeline High Dose","TRT01PN":null,"TRT01A":"Xanomeline High Dose","SITEGR1":900,"SITEID":704,"TRTSDT":"2013-10-13","TRTEDT":"2013-12-06","ITTFL":"Y","SAFFL":"Y","EFFFL":"N","COMPLFL":"N"},{"STUDYID":"CDISCPILOT01","USUBJID":"01-704-1323","NDOSE":2,"PARAMCD":"TRTDUR","AVAL":29,"PARAM":"Duration of Exposure (days)","EXDURGR1":"<=30 days","TRTP":"Xanomeline Low Dose","TRT01P":"Xanomeline Low Dose","TRT01PN":null,"TRT01A":"Xanomeline Low Dose","SITEGR1":900,"SITEID":704,"TRTSDT":"2013-07-08","TRTEDT":"2013-08-05","ITTFL":"Y","SAFFL":"Y","EFFFL":"N","COMPLFL":"N"},{"STUDYID":"CDISCPILOT01","USUBJID":"01-704-1323","NDOSE":2,"PARAMCD":"CUMDOSE","AVAL":108,"PARAM":"Cumulative Dose (mg)","EXDURGR1":"<=30 days","TRTP":"Xanomeline Low Dose","TRT01P":"Xanomeline Low Dose","TRT01PN":null,"TRT01A":"Xanomeline Low Dose","SITEGR1":900,"SITEID":704,"TRTSDT":"2013-07-08","TRTEDT":"2013-08-05","ITTFL":"Y","SAFFL":"Y","EFFFL":"N","COMPLFL":"N"},{"STUDYID":"CDISCPILOT01","USUBJID":"01-704-1323","NDOSE":2,"PARAMCD":"AVGDD","AVAL":3.7241,"PARAM":"Average Daily Dose (mg/day)","EXDURGR1":"<=30 days","TRTP":"Xanomeline Low Dose","TRT01P":"Xanomeline Low Dose","TRT01PN":null,"TRT01A":"Xanomeline Low Dose","SITEGR1":900,"SITEID":704,"TRTSDT":"2013-07-08","TRTEDT":"2013-08-05","ITTFL":"Y","SAFFL":"Y","EFFFL":"N","COMPLFL":"N"},{"STUDYID":"CDISCPILOT01","USUBJID":"01-704-1325","NDOSE":2,"PARAMCD":"TRTDUR","AVAL":73,"PARAM":"Duration of Exposure (days)","EXDURGR1":"31-90 days","TRTP":"Xanomeline Low Dose","TRT01P":"Xanomeline Low Dose","TRT01PN":null,"TRT01A":"Xanomeline Low Dose","SITEGR1":900,"SITEID":704,"TRTSDT":"2014-04-23","TRTEDT":"2014-07-04","ITTFL":"Y","SAFFL":"Y","EFFFL":"N","COMPLFL":"N"},{"STUDYID":"CDISCPILOT01","USUBJID":"01-704-1325","NDOSE":2,"PARAMCD":"CUMDOSE","AVAL":108,"PARAM":"Cumulative Dose (mg)","EXDURGR1":"31-90 days","TRTP":"Xanomeline Low Dose","TRT01P":"Xanomeline Low Dose","TRT01PN":null,"TRT01A":"Xanomeline Low Dose","SITEGR1":900,"SITEID":704,"TRTSDT":"2014-04-23","TRTEDT":"2014-07-04","ITTFL":"Y","SAFFL":"Y","EFFFL":"N","COMPLFL":"N"},{"STUDYID":"CDISCPILOT01","USUBJID":"01-704-1325","NDOSE":2,"PARAMCD":"AVGDD","AVAL":1.4795,"PARAM":"Average Daily Dose (mg/day)","EXDURGR1":"31-90 days","TRTP":"Xanomeline Low Dose","TRT01P":"Xanomeline Low Dose","TRT01PN":null,"TRT01A":"Xanomeline Low Dose","SITEGR1":900,"SITEID":704,"TRTSDT":"2014-04-23","TRTEDT":"2014-07-04","ITTFL":"Y","SAFFL":"Y","EFFFL":"N","COMPLFL":"N"},{"STUDYID":"CDISCPILOT01","USUBJID":"01-704-1332","NDOSE":2,"PARAMCD":"TRTDUR","AVAL":68,"PARAM":"Duration of Exposure (days)","EXDURGR1":"31-90 days","TRTP":"Xanomeline High Dose","TRT01P":"Xanomeline High Dose","TRT01PN":null,"TRT01A":"Xanomeline High Dose","SITEGR1":900,"SITEID":704,"TRTSDT":"2013-12-09","TRTEDT":"2014-02-14","ITTFL":"Y","SAFFL":"Y","EFFFL":"N","COMPLFL":"N"},{"STUDYID":"CDISCPILOT01","USUBJID":"01-704-1332","NDOSE":2,"PARAMCD":"CUMDOSE","AVAL":135,"PARAM":"Cumulative Dose (mg)","EXDURGR1":"31-90 days","TRTP":"Xanomeline High Dose","TRT01P":"Xanomeline High Dose","TRT01PN":null,"TRT01A":"Xanomeline High Dose","SITEGR1":900,"SITEID":704,"TRTSDT":"2013-12-09","TRTEDT":"2014-02-14","ITTFL":"Y","SAFFL":"Y","EFFFL":"N","COMPLFL":"N"},{"STUDYID":"CDISCPILOT01","USUBJID":"01-704-1332","NDOSE":2,"PARAMCD":"AVGDD","AVAL":1.9853,"PARAM":"Average Daily Dose (mg/day)","EXDURGR1":"31-90 days","TRTP":"Xanomeline High Dose","TRT01P":"Xanomeline High Dose","TRT01PN":null,"TRT01A":"Xanomeline High Dose","SITEGR1":900,"SITEID":704,"TRTSDT":"2013-12-09","TRTEDT":"2014-02-14","ITTFL":"Y","SAFFL":"Y","EFFFL":"N","COMPLFL":"N"},{"STUDYID":"CDISCPILOT01","USUBJID":"01-704-1351","NDOSE":3,"PARAMCD":"TRTDUR","AVAL":189,"PARAM":"Duration of Exposure (days)","EXDURGR1":">168 days","TRTP":"Placebo","TRT01P":"Placebo","TRT01PN":null,"TRT01A":"Placebo","SITEGR1":900,"SITEID":704,"TRTSDT":"2013-10-12","TRTEDT":"2014-04-18","ITTFL":"Y","SAFFL":"Y","EFFFL":"N","COMPLFL":"Y"},{"STUDYID":"CDISCPILOT01","USUBJID":"01-704-1351","NDOSE":3,"PARAMCD":"CUMDOSE","AVAL":0,"PARAM":"Cumulative Dose (mg)","EXDURGR1":">168 days","TRTP":"Placebo","TRT01P":"Placebo","TRT01PN":null,"TRT01A":"Placebo","SITEGR1":900,"SITEID":704,"TRTSDT":"2013-10-12","TRTEDT":"2014-04-18","ITTFL":"Y","SAFFL":"Y","EFFFL":"N","COMPLFL":"Y"},{"STUDYID":"CDISCPILOT01","USUBJID":"01-704-1351","NDOSE":3,"PARAMCD":"AVGDD","AVAL":0,"PARAM":"Average Daily Dose (mg/day)","EXDURGR1":">168 days","TRTP":"Placebo","TRT01P":"Placebo","TRT01PN":null,"TRT01A":"Placebo","SITEGR1":900,"SITEID":704,"TRTSDT":"2013-10-12","TRTEDT":"2014-04-18","ITTFL":"Y","SAFFL":"Y","EFFFL":"N","COMPLFL":"Y"},{"STUDYID":"CDISCPILOT01","USUBJID":"01-704-1388","NDOSE":3,"PARAMCD":"TRTDUR","AVAL":187,"PARAM":"Duration of Exposure (days)","EXDURGR1":">168 days","TRTP":"Placebo","TRT01P":"Placebo","TRT01PN":null,"TRT01A":"Placebo","SITEGR1":900,"SITEID":704,"TRTSDT":"2012-12-07","TRTEDT":"2013-06-11","ITTFL":"Y","SAFFL":"Y","EFFFL":"N","COMPLFL":"Y"},{"STUDYID":"CDISCPILOT01","USUBJID":"01-704-1388","NDOSE":3,"PARAMCD":"CUMDOSE","AVAL":0,"PARAM":"Cumulative Dose (mg)","EXDURGR1":">168 days","TRTP":"Placebo","TRT01P":"Placebo","TRT01PN":null,"TRT01A":"Placebo","SITEGR1":900,"SITEID":704,"TRTSDT":"2012-12-07","TRTEDT":"2013-06-11","ITTFL":"Y","SAFFL":"Y","EFFFL":"N","COMPLFL":"Y"},{"STUDYID":"CDISCPILOT01","USUBJID":"01-704-1388","NDOSE":3,"PARAMCD":"AVGDD","AVAL":0,"PARAM":"Average Daily Dose (mg/day)","EXDURGR1":">168 days","TRTP":"Placebo","TRT01P":"Placebo","TRT01PN":null,"TRT01A":"Placebo","SITEGR1":900,"SITEID":704,"TRTSDT":"2012-12-07","TRTEDT":"2013-06-11","ITTFL":"Y","SAFFL":"Y","EFFFL":"N","COMPLFL":"Y"},{"STUDYID":"CDISCPILOT01","USUBJID":"01-704-1435","NDOSE":2,"PARAMCD":"TRTDUR","AVAL":54,"PARAM":"Duration of Exposure (days)","EXDURGR1":"31-90 days","TRTP":"Placebo","TRT01P":"Placebo","TRT01PN":null,"TRT01A":"Placebo","SITEGR1":900,"SITEID":704,"TRTSDT":"2012-11-17","TRTEDT":"2013-01-09","ITTFL":"Y","SAFFL":"Y","EFFFL":"N","COMPLFL":"N"},{"STUDYID":"CDISCPILOT01","USUBJID":"01-704-1435","NDOSE":2,"PARAMCD":"CUMDOSE","AVAL":0,"PARAM":"Cumulative Dose (mg)","EXDURGR1":"31-90 days","TRTP":"Placebo","TRT01P":"Placebo","TRT01PN":null,"TRT01A":"Placebo","SITEGR1":900,"SITEID":704,"TRTSDT":"2012-11-17","TRTEDT":"2013-01-09","ITTFL":"Y","SAFFL":"Y","EFFFL":"N","COMPLFL":"N"},{"STUDYID":"CDISCPILOT01","USUBJID":"01-704-1435","NDOSE":2,"PARAMCD":"AVGDD","AVAL":0,"PARAM":"Average Daily Dose (mg/day)","EXDURGR1":"31-90 days","TRTP":"Placebo","TRT01P":"Placebo","TRT01PN":null,"TRT01A":"Placebo","SITEGR1":900,"SITEID":704,"TRTSDT":"2012-11-17","TRTEDT":"2013-01-09","ITTFL":"Y","SAFFL":"Y","EFFFL":"N","COMPLFL":"N"},{"STUDYID":"CDISCPILOT01","USUBJID":"01-704-1445","NDOSE":2,"PARAMCD":"TRTDUR","AVAL":175,"PARAM":"Duration of Exposure (days)","EXDURGR1":">168 days","TRTP":"Placebo","TRT01P":"Placebo","TRT01PN":null,"TRT01A":"Placebo","SITEGR1":900,"SITEID":704,"TRTSDT":"2014-05-11","TRTEDT":"2014-11-01","ITTFL":"Y","SAFFL":"Y","EFFFL":"N","COMPLFL":"N"},{"STUDYID":"CDISCPILOT01","USUBJID":"01-704-1445","NDOSE":2,"PARAMCD":"CUMDOSE","AVAL":0,"PARAM":"Cumulative Dose (mg)","EXDURGR1":">168 days","TRTP":"Placebo","TRT01P":"Placebo","TRT01PN":null,"TRT01A":"Placebo","SITEGR1":900,"SITEID":704,"TRTSDT":"2014-05-11","TRTEDT":"2014-11-01","ITTFL":"Y","SAFFL":"Y","EFFFL":"N","COMPLFL":"N"},{"STUDYID":"CDISCPILOT01","USUBJID":"01-704-1445","NDOSE":2,"PARAMCD":"AVGDD","AVAL":0,"PARAM":"Average Daily Dose (mg/day)","EXDURGR1":">168 days","TRTP":"Placebo","TRT01P":"Placebo","TRT01PN":null,"TRT01A":"Placebo","SITEGR1":900,"SITEID":704,"TRTSDT":"2014-05-11","TRTEDT":"2014-11-01","ITTFL":"Y","SAFFL":"Y","EFFFL":"N","COMPLFL":"N"},{"STUDYID":"CDISCPILOT01","USUBJID":"01-705-1018","NDOSE":1,"PARAMCD":"TRTDUR","AVAL":null,"PARAM":"Duration of Exposure (days)","EXDURGR1":"<=30 days","TRTP":"Placebo","TRT01P":"Placebo","TRT01PN":null,"TRT01A":"Placebo","SITEGR1":900,"SITEID":705,"TRTSDT":"2013-07-05","TRTEDT":null,"ITTFL":"Y","SAFFL":"Y","EFFFL":"N","COMPLFL":"N"},{"STUDYID":"CDISCPILOT01","USUBJID":"01-705-1018","NDOSE":1,"PARAMCD":"CUMDOSE","AVAL":0,"PARAM":"Cumulative Dose (mg)","EXDURGR1":"<=30 days","TRTP":"Placebo","TRT01P":"Placebo","TRT01PN":null,"TRT01A":"Placebo","SITEGR1":900,"SITEID":705,"TRTSDT":"2013-07-05","TRTEDT":null,"ITTFL":"Y","SAFFL":"Y","EFFFL":"N","COMPLFL":"N"},{"STUDYID":"CDISCPILOT01","USUBJID":"01-705-1018","NDOSE":1,"PARAMCD":"AVGDD","AVAL":-0,"PARAM":"Average Daily Dose (mg/day)","EXDURGR1":"<=30 days","TRTP":"Placebo","TRT01P":"Placebo","TRT01PN":null,"TRT01A":"Placebo","SITEGR1":900,"SITEID":705,"TRTSDT":"2013-07-05","TRTEDT":null,"ITTFL":"Y","SAFFL":"Y","EFFFL":"N","COMPLFL":"N"},{"STUDYID":"CDISCPILOT01","USUBJID":"01-705-1031","NDOSE":2,"PARAMCD":"TRTDUR","AVAL":22,"PARAM":"Duration of Exposure (days)","EXDURGR1":"<=30 days","TRTP":"Xanomeline Low Dose","TRT01P":"Xanomeline Low Dose","TRT01PN":null,"TRT01A":"Xanomeline Low Dose","SITEGR1":900,"SITEID":705,"TRTSDT":"2013-11-27","TRTEDT":"2013-12-18","ITTFL":"Y","SAFFL":"Y","EFFFL":"N","COMPLFL":"N"},{"STUDYID":"CDISCPILOT01","USUBJID":"01-705-1031","NDOSE":2,"PARAMCD":"CUMDOSE","AVAL":108,"PARAM":"Cumulative Dose (mg)","EXDURGR1":"<=30 days","TRTP":"Xanomeline Low Dose","TRT01P":"Xanomeline Low Dose","TRT01PN":null,"TRT01A":"Xanomeline Low Dose","SITEGR1":900,"SITEID":705,"TRTSDT":"2013-11-27","TRTEDT":"2013-12-18","ITTFL":"Y","SAFFL":"Y","EFFFL":"N","COMPLFL":"N"},{"STUDYID":"CDISCPILOT01","USUBJID":"01-705-1031","NDOSE":2,"PARAMCD":"AVGDD","AVAL":4.9091,"PARAM":"Average Daily Dose (mg/day)","EXDURGR1":"<=30 days","TRTP":"Xanomeline Low Dose","TRT01P":"Xanomeline Low Dose","TRT01PN":null,"TRT01A":"Xanomeline Low Dose","SITEGR1":900,"SITEID":705,"TRTSDT":"2013-11-27","TRTEDT":"2013-12-18","ITTFL":"Y","SAFFL":"Y","EFFFL":"N","COMPLFL":"N"},{"STUDYID":"CDISCPILOT01","USUBJID":"01-705-1059","NDOSE":2,"PARAMCD":"TRTDUR","AVAL":123,"PARAM":"Duration of Exposure (days)","EXDURGR1":"91-168 days","TRTP":"Placebo","TRT01P":"Placebo","TRT01PN":null,"TRT01A":"Placebo","SITEGR1":900,"SITEID":705,"TRTSDT":"2013-08-05","TRTEDT":"2013-12-05","ITTFL":"Y","SAFFL":"Y","EFFFL":"N","COMPLFL":"N"},{"STUDYID":"CDISCPILOT01","USUBJID":"01-705-1059","NDOSE":2,"PARAMCD":"CUMDOSE","AVAL":0,"PARAM":"Cumulative Dose (mg)","EXDURGR1":"91-168 days","TRTP":"Placebo","TRT01P":"Placebo","TRT01PN":null,"TRT01A":"Placebo","SITEGR1":900,"SITEID":705,"TRTSDT":"2013-08-05","TRTEDT":"2013-12-05","ITTFL":"Y","SAFFL":"Y","EFFFL":"N","COMPLFL":"N"},{"STUDYID":"CDISCPILOT01","USUBJID":"01-705-1059","NDOSE":2,"PARAMCD":"AVGDD","AVAL":0,"PARAM":"Average Daily Dose (mg/day)","EXDURGR1":"91-168 days","TRTP":"Placebo","TRT01P":"Placebo","TRT01PN":null,"TRT01A":"Placebo","SITEGR1":900,"SITEID":705,"TRTSDT":"2013-08-05","TRTEDT":"2013-12-05","ITTFL":"Y","SAFFL":"Y","EFFFL":"N","COMPLFL":"N"},{"STUDYID":"CDISCPILOT01","USUBJID":"01-705-1186","NDOSE":2,"PARAMCD":"TRTDUR","AVAL":19,"PARAM":"Duration of Exposure (days)","EXDURGR1":"<=30 days","TRTP":"Placebo","TRT01P":"Placebo","TRT01PN":null,"TRT01A":"Placebo","SITEGR1":900,"SITEID":705,"TRTSDT":"2014-01-08","TRTEDT":"2014-01-26","ITTFL":"Y","SAFFL":"Y","EFFFL":"N","COMPLFL":"N"},{"STUDYID":"CDISCPILOT01","USUBJID":"01-705-1186","NDOSE":2,"PARAMCD":"CUMDOSE","AVAL":0,"PARAM":"Cumulative Dose (mg)","EXDURGR1":"<=30 days","TRTP":"Placebo","TRT01P":"Placebo","TRT01PN":null,"TRT01A":"Placebo","SITEGR1":900,"SITEID":705,"TRTSDT":"2014-01-08","TRTEDT":"2014-01-26","ITTFL":"Y","SAFFL":"Y","EFFFL":"N","COMPLFL":"N"},{"STUDYID":"CDISCPILOT01","USUBJID":"01-705-1186","NDOSE":2,"PARAMCD":"AVGDD","AVAL":0,"PARAM":"Average Daily Dose (mg/day)","EXDURGR1":"<=30 days","TRTP":"Placebo","TRT01P":"Placebo","TRT01PN":null,"TRT01A":"Placebo","SITEGR1":900,"SITEID":705,"TRTSDT":"2014-01-08","TRTEDT":"2014-01-26","ITTFL":"Y","SAFFL":"Y","EFFFL":"N","COMPLFL":"N"},{"STUDYID":"CDISCPILOT01","USUBJID":"01-705-1199","NDOSE":1,"PARAMCD":"TRTDUR","AVAL":13,"PARAM":"Duration of Exposure (days)","EXDURGR1":"<=30 days","TRTP":"Xanomeline Low Dose","TRT01P":"Xanomeline Low Dose","TRT01PN":null,"TRT01A":"Xanomeline Low Dose","SITEGR1":900,"SITEID":705,"TRTSDT":"2013-09-16","TRTEDT":"2013-09-28","ITTFL":"Y","SAFFL":"Y","EFFFL":"N","COMPLFL":"N"},{"STUDYID":"CDISCPILOT01","USUBJID":"01-705-1199","NDOSE":1,"PARAMCD":"CUMDOSE","AVAL":54,"PARAM":"Cumulative Dose (mg)","EXDURGR1":"<=30 days","TRTP":"Xanomeline Low Dose","TRT01P":"Xanomeline Low Dose","TRT01PN":null,"TRT01A":"Xanomeline Low Dose","SITEGR1":900,"SITEID":705,"TRTSDT":"2013-09-16","TRTEDT":"2013-09-28","ITTFL":"Y","SAFFL":"Y","EFFFL":"N","COMPLFL":"N"},{"STUDYID":"CDISCPILOT01","USUBJID":"01-705-1199","NDOSE":1,"PARAMCD":"AVGDD","AVAL":4.1538,"PARAM":"Average Daily Dose (mg/day)","EXDURGR1":"<=30 days","TRTP":"Xanomeline Low Dose","TRT01P":"Xanomeline Low Dose","TRT01PN":null,"TRT01A":"Xanomeline Low Dose","SITEGR1":900,"SITEID":705,"TRTSDT":"2013-09-16","TRTEDT":"2013-09-28","ITTFL":"Y","SAFFL":"Y","EFFFL":"N","COMPLFL":"N"},{"STUDYID":"CDISCPILOT01","USUBJID":"01-705-1280","NDOSE":3,"PARAMCD":"TRTDUR","AVAL":190,"PARAM":"Duration of Exposure (days)","EXDURGR1":">168 days","TRTP":"Xanomeline High Dose","TRT01P":"Xanomeline High Dose","TRT01PN":null,"TRT01A":"Xanomeline High Dose","SITEGR1":900,"SITEID":705,"TRTSDT":"2014-01-17","TRTEDT":"2014-07-25","ITTFL":"Y","SAFFL":"Y","EFFFL":"N","COMPLFL":"Y"},{"STUDYID":"CDISCPILOT01","USUBJID":"01-705-1280","NDOSE":3,"PARAMCD":"CUMDOSE","AVAL":189,"PARAM":"Cumulative Dose (mg)","EXDURGR1":">168 days","TRTP":"Xanomeline High Dose","TRT01P":"Xanomeline High Dose","TRT01PN":null,"TRT01A":"Xanomeline High Dose","SITEGR1":900,"SITEID":705,"TRTSDT":"2014-01-17","TRTEDT":"2014-07-25","ITTFL":"Y","SAFFL":"Y","EFFFL":"N","COMPLFL":"Y"},{"STUDYID":"CDISCPILOT01","USUBJID":"01-705-1280","NDOSE":3,"PARAMCD":"AVGDD","AVAL":0.9947,"PARAM":"Average Daily Dose (mg/day)","EXDURGR1":">168 days","TRTP":"Xanomeline High Dose","TRT01P":"Xanomeline High Dose","TRT01PN":null,"TRT01A":"Xanomeline High Dose","SITEGR1":900,"SITEID":705,"TRTSDT":"2014-01-17","TRTEDT":"2014-07-25","ITTFL":"Y","SAFFL":"Y","EFFFL":"N","COMPLFL":"Y"},{"STUDYID":"CDISCPILOT01","USUBJID":"01-705-1281","NDOSE":2,"PARAMCD":"TRTDUR","AVAL":92,"PARAM":"Duration of Exposure (days)","EXDURGR1":"91-168 days","TRTP":"Xanomeline High Dose","TRT01P":"Xanomeline High Dose","TRT01PN":null,"TRT01A":"Xanomeline High Dose","SITEGR1":900,"SITEID":705,"TRTSDT":"2013-11-28","TRTEDT":"2014-02-27","ITTFL":"Y","SAFFL":"Y","EFFFL":"N","COMPLFL":"N"},{"STUDYID":"CDISCPILOT01","USUBJID":"01-705-1281","NDOSE":2,"PARAMCD":"CUMDOSE","AVAL":135,"PARAM":"Cumulative Dose (mg)","EXDURGR1":"91-168 days","TRTP":"Xanomeline High Dose","TRT01P":"Xanomeline High Dose","TRT01PN":null,"TRT01A":"Xanomeline High Dose","SITEGR1":900,"SITEID":705,"TRTSDT":"2013-11-28","TRTEDT":"2014-02-27","ITTFL":"Y","SAFFL":"Y","EFFFL":"N","COMPLFL":"N"},{"STUDYID":"CDISCPILOT01","USUBJID":"01-705-1281","NDOSE":2,"PARAMCD":"AVGDD","AVAL":1.4674,"PARAM":"Average Daily Dose (mg/day)","EXDURGR1":"91-168 days","TRTP":"Xanomeline High Dose","TRT01P":"Xanomeline High Dose","TRT01PN":null,"TRT01A":"Xanomeline High Dose","SITEGR1":900,"SITEID":705,"TRTSDT":"2013-11-28","TRTEDT":"2014-02-27","ITTFL":"Y","SAFFL":"Y","EFFFL":"N","COMPLFL":"N"},{"STUDYID":"CDISCPILOT01","USUBJID":"01-705-1282","NDOSE":3,"PARAMCD":"TRTDUR","AVAL":181,"PARAM":"Duration of Exposure (days)","EXDURGR1":">168 days","TRTP":"Placebo","TRT01P":"Placebo","TRT01PN":null,"TRT01A":"Placebo","SITEGR1":900,"SITEID":705,"TRTSDT":"2012-12-26","TRTEDT":"2013-06-24","ITTFL":"Y","SAFFL":"Y","EFFFL":"N","COMPLFL":"Y"},{"STUDYID":"CDISCPILOT01","USUBJID":"01-705-1282","NDOSE":3,"PARAMCD":"CUMDOSE","AVAL":0,"PARAM":"Cumulative Dose (mg)","EXDURGR1":">168 days","TRTP":"Placebo","TRT01P":"Placebo","TRT01PN":null,"TRT01A":"Placebo","SITEGR1":900,"SITEID":705,"TRTSDT":"2012-12-26","TRTEDT":"2013-06-24","ITTFL":"Y","SAFFL":"Y","EFFFL":"N","COMPLFL":"Y"},{"STUDYID":"CDISCPILOT01","USUBJID":"01-705-1282","NDOSE":3,"PARAMCD":"AVGDD","AVAL":0,"PARAM":"Average Daily Dose (mg/day)","EXDURGR1":">168 days","TRTP":"Placebo","TRT01P":"Placebo","TRT01PN":null,"TRT01A":"Placebo","SITEGR1":900,"SITEID":705,"TRTSDT":"2012-12-26","TRTEDT":"2013-06-24","ITTFL":"Y","SAFFL":"Y","EFFFL":"N","COMPLFL":"Y"},{"STUDYID":"CDISCPILOT01","USUBJID":"01-705-1292","NDOSE":3,"PARAMCD":"TRTDUR","AVAL":212,"PARAM":"Duration of Exposure (days)","EXDURGR1":">168 days","TRTP":"Xanomeline Low Dose","TRT01P":"Xanomeline Low Dose","TRT01PN":null,"TRT01A":"Xanomeline Low Dose","SITEGR1":900,"SITEID":705,"TRTSDT":"2013-10-14","TRTEDT":"2014-05-13","ITTFL":"Y","SAFFL":"Y","EFFFL":"N","COMPLFL":"Y"},{"STUDYID":"CDISCPILOT01","USUBJID":"01-705-1292","NDOSE":3,"PARAMCD":"CUMDOSE","AVAL":162,"PARAM":"Cumulative Dose (mg)","EXDURGR1":">168 days","TRTP":"Xanomeline Low Dose","TRT01P":"Xanomeline Low Dose","TRT01PN":null,"TRT01A":"Xanomeline Low Dose","SITEGR1":900,"SITEID":705,"TRTSDT":"2013-10-14","TRTEDT":"2014-05-13","ITTFL":"Y","SAFFL":"Y","EFFFL":"N","COMPLFL":"Y"},{"STUDYID":"CDISCPILOT01","USUBJID":"01-705-1292","NDOSE":3,"PARAMCD":"AVGDD","AVAL":0.7642,"PARAM":"Average Daily Dose (mg/day)","EXDURGR1":">168 days","TRTP":"Xanomeline Low Dose","TRT01P":"Xanomeline Low Dose","TRT01PN":null,"TRT01A":"Xanomeline Low Dose","SITEGR1":900,"SITEID":705,"TRTSDT":"2013-10-14","TRTEDT":"2014-05-13","ITTFL":"Y","SAFFL":"Y","EFFFL":"N","COMPLFL":"Y"},{"STUDYID":"CDISCPILOT01","USUBJID":"01-705-1303","NDOSE":2,"PARAMCD":"TRTDUR","AVAL":15,"PARAM":"Duration of Exposure (days)","EXDURGR1":"<=30 days","TRTP":"Xanomeline High Dose","TRT01P":"Xanomeline High Dose","TRT01PN":null,"TRT01A":"Xanomeline High Dose","SITEGR1":900,"SITEID":705,"TRTSDT":"2013-12-16","TRTEDT":"2013-12-30","ITTFL":"Y","SAFFL":"Y","EFFFL":"N","COMPLFL":"N"},{"STUDYID":"CDISCPILOT01","USUBJID":"01-705-1303","NDOSE":2,"PARAMCD":"CUMDOSE","AVAL":135,"PARAM":"Cumulative Dose (mg)","EXDURGR1":"<=30 days","TRTP":"Xanomeline High Dose","TRT01P":"Xanomeline High Dose","TRT01PN":null,"TRT01A":"Xanomeline High Dose","SITEGR1":900,"SITEID":705,"TRTSDT":"2013-12-16","TRTEDT":"2013-12-30","ITTFL":"Y","SAFFL":"Y","EFFFL":"N","COMPLFL":"N"},{"STUDYID":"CDISCPILOT01","USUBJID":"01-705-1303","NDOSE":2,"PARAMCD":"AVGDD","AVAL":9,"PARAM":"Average Daily Dose (mg/day)","EXDURGR1":"<=30 days","TRTP":"Xanomeline High Dose","TRT01P":"Xanomeline High Dose","TRT01PN":null,"TRT01A":"Xanomeline High Dose","SITEGR1":900,"SITEID":705,"TRTSDT":"2013-12-16","TRTEDT":"2013-12-30","ITTFL":"Y","SAFFL":"Y","EFFFL":"N","COMPLFL":"N"},{"STUDYID":"CDISCPILOT01","USUBJID":"01-705-1310","NDOSE":2,"PARAMCD":"TRTDUR","AVAL":83,"PARAM":"Duration of Exposure (days)","EXDURGR1":"31-90 days","TRTP":"Xanomeline High Dose","TRT01P":"Xanomeline High Dose","TRT01PN":null,"TRT01A":"Xanomeline High Dose","SITEGR1":900,"SITEID":705,"TRTSDT":"2013-11-02","TRTEDT":"2014-01-23","ITTFL":"Y","SAFFL":"Y","EFFFL":"N","COMPLFL":"N"},{"STUDYID":"CDISCPILOT01","USUBJID":"01-705-1310","NDOSE":2,"PARAMCD":"CUMDOSE","AVAL":135,"PARAM":"Cumulative Dose (mg)","EXDURGR1":"31-90 days","TRTP":"Xanomeline High Dose","TRT01P":"Xanomeline High Dose","TRT01PN":null,"TRT01A":"Xanomeline High Dose","SITEGR1":900,"SITEID":705,"TRTSDT":"2013-11-02","TRTEDT":"2014-01-23","ITTFL":"Y","SAFFL":"Y","EFFFL":"N","COMPLFL":"N"},{"STUDYID":"CDISCPILOT01","USUBJID":"01-705-1310","NDOSE":2,"PARAMCD":"AVGDD","AVAL":1.6265,"PARAM":"Average Daily Dose (mg/day)","EXDURGR1":"31-90 days","TRTP":"Xanomeline High Dose","TRT01P":"Xanomeline High Dose","TRT01PN":null,"TRT01A":"Xanomeline High Dose","SITEGR1":900,"SITEID":705,"TRTSDT":"2013-11-02","TRTEDT":"2014-01-23","ITTFL":"Y","SAFFL":"Y","EFFFL":"N","COMPLFL":"N"},{"STUDYID":"CDISCPILOT01","USUBJID":"01-705-1349","NDOSE":3,"PARAMCD":"TRTDUR","AVAL":183,"PARAM":"Duration of Exposure (days)","EXDURGR1":">168 days","TRTP":"Placebo","TRT01P":"Placebo","TRT01PN":null,"TRT01A":"Placebo","SITEGR1":900,"SITEID":705,"TRTSDT":"2013-03-10","TRTEDT":"2013-09-08","ITTFL":"Y","SAFFL":"Y","EFFFL":"N","COMPLFL":"Y"},{"STUDYID":"CDISCPILOT01","USUBJID":"01-705-1349","NDOSE":3,"PARAMCD":"CUMDOSE","AVAL":0,"PARAM":"Cumulative Dose (mg)","EXDURGR1":">168 days","TRTP":"Placebo","TRT01P":"Placebo","TRT01PN":null,"TRT01A":"Placebo","SITEGR1":900,"SITEID":705,"TRTSDT":"2013-03-10","TRTEDT":"2013-09-08","ITTFL":"Y","SAFFL":"Y","EFFFL":"N","COMPLFL":"Y"},{"STUDYID":"CDISCPILOT01","USUBJID":"01-705-1349","NDOSE":3,"PARAMCD":"AVGDD","AVAL":0,"PARAM":"Average Daily Dose (mg/day)","EXDURGR1":">168 days","TRTP":"Placebo","TRT01P":"Placebo","TRT01PN":null,"TRT01A":"Placebo","SITEGR1":900,"SITEID":705,"TRTSDT":"2013-03-10","TRTEDT":"2013-09-08","ITTFL":"Y","SAFFL":"Y","EFFFL":"N","COMPLFL":"Y"},{"STUDYID":"CDISCPILOT01","USUBJID":"01-705-1377","NDOSE":2,"PARAMCD":"TRTDUR","AVAL":22,"PARAM":"Duration of Exposure (days)","EXDURGR1":"<=30 days","TRTP":"Xanomeline High Dose","TRT01P":"Xanomeline High Dose","TRT01PN":null,"TRT01A":"Xanomeline High Dose","SITEGR1":900,"SITEID":705,"TRTSDT":"2014-01-04","TRTEDT":"2014-01-25","ITTFL":"Y","SAFFL":"Y","EFFFL":"N","COMPLFL":"N"},{"STUDYID":"CDISCPILOT01","USUBJID":"01-705-1377","NDOSE":2,"PARAMCD":"CUMDOSE","AVAL":135,"PARAM":"Cumulative Dose (mg)","EXDURGR1":"<=30 days","TRTP":"Xanomeline High Dose","TRT01P":"Xanomeline High Dose","TRT01PN":null,"TRT01A":"Xanomeline High Dose","SITEGR1":900,"SITEID":705,"TRTSDT":"2014-01-04","TRTEDT":"2014-01-25","ITTFL":"Y","SAFFL":"Y","EFFFL":"N","COMPLFL":"N"},{"STUDYID":"CDISCPILOT01","USUBJID":"01-705-1377","NDOSE":2,"PARAMCD":"AVGDD","AVAL":6.1364,"PARAM":"Average Daily Dose (mg/day)","EXDURGR1":"<=30 days","TRTP":"Xanomeline High Dose","TRT01P":"Xanomeline High Dose","TRT01PN":null,"TRT01A":"Xanomeline High Dose","SITEGR1":900,"SITEID":705,"TRTSDT":"2014-01-04","TRTEDT":"2014-01-25","ITTFL":"Y","SAFFL":"Y","EFFFL":"N","COMPLFL":"N"},{"STUDYID":"CDISCPILOT01","USUBJID":"01-705-1382","NDOSE":1,"PARAMCD":"TRTDUR","AVAL":null,"PARAM":"Duration of Exposure (days)","EXDURGR1":"<=30 days","TRTP":"Xanomeline High Dose","TRT01P":"Xanomeline High Dose","TRT01PN":null,"TRT01A":"Xanomeline Low Dose","SITEGR1":900,"SITEID":705,"TRTSDT":"2013-05-13","TRTEDT":null,"ITTFL":"Y","SAFFL":"Y","EFFFL":"N","COMPLFL":"N"},{"STUDYID":"CDISCPILOT01","USUBJID":"01-705-1382","NDOSE":1,"PARAMCD":"CUMDOSE","AVAL":54,"PARAM":"Cumulative Dose (mg)","EXDURGR1":"<=30 days","TRTP":"Xanomeline High Dose","TRT01P":"Xanomeline High Dose","TRT01PN":null,"TRT01A":"Xanomeline Low Dose","SITEGR1":900,"SITEID":705,"TRTSDT":"2013-05-13","TRTEDT":null,"ITTFL":"Y","SAFFL":"Y","EFFFL":"N","COMPLFL":"N"},{"STUDYID":"CDISCPILOT01","USUBJID":"01-705-1382","NDOSE":1,"PARAMCD":"AVGDD","AVAL":-0,"PARAM":"Average Daily Dose (mg/day)","EXDURGR1":"<=30 days","TRTP":"Xanomeline High Dose","TRT01P":"Xanomeline High Dose","TRT01PN":null,"TRT01A":"Xanomeline Low Dose","SITEGR1":900,"SITEID":705,"TRTSDT":"2013-05-13","TRTEDT":null,"ITTFL":"Y","SAFFL":"Y","EFFFL":"N","COMPLFL":"N"},{"STUDYID":"CDISCPILOT01","USUBJID":"01-705-1393","NDOSE":2,"PARAMCD":"TRTDUR","AVAL":148,"PARAM":"Duration of Exposure (days)","EXDURGR1":"91-168 days","TRTP":"Xanomeline Low Dose","TRT01P":"Xanomeline Low Dose","TRT01PN":null,"TRT01A":"Xanomeline Low Dose","SITEGR1":900,"SITEID":705,"TRTSDT":"2012-09-07","TRTEDT":"2013-02-01","ITTFL":"Y","SAFFL":"Y","EFFFL":"N","COMPLFL":"N"},{"STUDYID":"CDISCPILOT01","USUBJID":"01-705-1393","NDOSE":2,"PARAMCD":"CUMDOSE","AVAL":108,"PARAM":"Cumulative Dose (mg)","EXDURGR1":"91-168 days","TRTP":"Xanomeline Low Dose","TRT01P":"Xanomeline Low Dose","TRT01PN":null,"TRT01A":"Xanomeline Low Dose","SITEGR1":900,"SITEID":705,"TRTSDT":"2012-09-07","TRTEDT":"2013-02-01","ITTFL":"Y","SAFFL":"Y","EFFFL":"N","COMPLFL":"N"},{"STUDYID":"CDISCPILOT01","USUBJID":"01-705-1393","NDOSE":2,"PARAMCD":"AVGDD","AVAL":0.7297,"PARAM":"Average Daily Dose (mg/day)","EXDURGR1":"91-168 days","TRTP":"Xanomeline Low Dose","TRT01P":"Xanomeline Low Dose","TRT01PN":null,"TRT01A":"Xanomeline Low Dose","SITEGR1":900,"SITEID":705,"TRTSDT":"2012-09-07","TRTEDT":"2013-02-01","ITTFL":"Y","SAFFL":"Y","EFFFL":"N","COMPLFL":"N"},{"STUDYID":"CDISCPILOT01","USUBJID":"01-705-1431","NDOSE":3,"PARAMCD":"TRTDUR","AVAL":180,"PARAM":"Duration of Exposure (days)","EXDURGR1":">168 days","TRTP":"Xanomeline Low Dose","TRT01P":"Xanomeline Low Dose","TRT01PN":null,"TRT01A":"Xanomeline Low Dose","SITEGR1":900,"SITEID":705,"TRTSDT":"2013-06-23","TRTEDT":"2013-12-19","ITTFL":"Y","SAFFL":"Y","EFFFL":"N","COMPLFL":"Y"},{"STUDYID":"CDISCPILOT01","USUBJID":"01-705-1431","NDOSE":3,"PARAMCD":"CUMDOSE","AVAL":162,"PARAM":"Cumulative Dose (mg)","EXDURGR1":">168 days","TRTP":"Xanomeline Low Dose","TRT01P":"Xanomeline Low Dose","TRT01PN":null,"TRT01A":"Xanomeline Low Dose","SITEGR1":900,"SITEID":705,"TRTSDT":"2013-06-23","TRTEDT":"2013-12-19","ITTFL":"Y","SAFFL":"Y","EFFFL":"N","COMPLFL":"Y"},{"STUDYID":"CDISCPILOT01","USUBJID":"01-705-1431","NDOSE":3,"PARAMCD":"AVGDD","AVAL":0.9,"PARAM":"Average Daily Dose (mg/day)","EXDURGR1":">168 days","TRTP":"Xanomeline Low Dose","TRT01P":"Xanomeline Low Dose","TRT01PN":null,"TRT01A":"Xanomeline Low Dose","SITEGR1":900,"SITEID":705,"TRTSDT":"2013-06-23","TRTEDT":"2013-12-19","ITTFL":"Y","SAFFL":"Y","EFFFL":"N","COMPLFL":"Y"},{"STUDYID":"CDISCPILOT01","USUBJID":"01-706-1041","NDOSE":3,"PARAMCD":"TRTDUR","AVAL":210,"PARAM":"Duration of Exposure (days)","EXDURGR1":">168 days","TRTP":"Placebo","TRT01P":"Placebo","TRT01PN":null,"TRT01A":"Placebo","SITEGR1":900,"SITEID":706,"TRTSDT":"2013-12-31","TRTEDT":"2014-07-28","ITTFL":"Y","SAFFL":"Y","EFFFL":"N","COMPLFL":"Y"},{"STUDYID":"CDISCPILOT01","USUBJID":"01-706-1041","NDOSE":3,"PARAMCD":"CUMDOSE","AVAL":0,"PARAM":"Cumulative Dose (mg)","EXDURGR1":">168 days","TRTP":"Placebo","TRT01P":"Placebo","TRT01PN":null,"TRT01A":"Placebo","SITEGR1":900,"SITEID":706,"TRTSDT":"2013-12-31","TRTEDT":"2014-07-28","ITTFL":"Y","SAFFL":"Y","EFFFL":"N","COMPLFL":"Y"},{"STUDYID":"CDISCPILOT01","USUBJID":"01-706-1041","NDOSE":3,"PARAMCD":"AVGDD","AVAL":0,"PARAM":"Average Daily Dose (mg/day)","EXDURGR1":">168 days","TRTP":"Placebo","TRT01P":"Placebo","TRT01PN":null,"TRT01A":"Placebo","SITEGR1":900,"SITEID":706,"TRTSDT":"2013-12-31","TRTEDT":"2014-07-28","ITTFL":"Y","SAFFL":"Y","EFFFL":"N","COMPLFL":"Y"},{"STUDYID":"CDISCPILOT01","USUBJID":"01-706-1049","NDOSE":2,"PARAMCD":"TRTDUR","AVAL":36,"PARAM":"Duration of Exposure (days)","EXDURGR1":"31-90 days","TRTP":"Xanomeline High Dose","TRT01P":"Xanomeline High Dose","TRT01PN":null,"TRT01A":"Xanomeline High Dose","SITEGR1":900,"SITEID":706,"TRTSDT":"2013-05-14","TRTEDT":"2013-06-18","ITTFL":"Y","SAFFL":"Y","EFFFL":"N","COMPLFL":"N"},{"STUDYID":"CDISCPILOT01","USUBJID":"01-706-1049","NDOSE":2,"PARAMCD":"CUMDOSE","AVAL":135,"PARAM":"Cumulative Dose (mg)","EXDURGR1":"31-90 days","TRTP":"Xanomeline High Dose","TRT01P":"Xanomeline High Dose","TRT01PN":null,"TRT01A":"Xanomeline High Dose","SITEGR1":900,"SITEID":706,"TRTSDT":"2013-05-14","TRTEDT":"2013-06-18","ITTFL":"Y","SAFFL":"Y","EFFFL":"N","COMPLFL":"N"},{"STUDYID":"CDISCPILOT01","USUBJID":"01-706-1049","NDOSE":2,"PARAMCD":"AVGDD","AVAL":3.75,"PARAM":"Average Daily Dose (mg/day)","EXDURGR1":"31-90 days","TRTP":"Xanomeline High Dose","TRT01P":"Xanomeline High Dose","TRT01PN":null,"TRT01A":"Xanomeline High Dose","SITEGR1":900,"SITEID":706,"TRTSDT":"2013-05-14","TRTEDT":"2013-06-18","ITTFL":"Y","SAFFL":"Y","EFFFL":"N","COMPLFL":"N"},{"STUDYID":"CDISCPILOT01","USUBJID":"01-706-1384","NDOSE":1,"PARAMCD":"TRTDUR","AVAL":10,"PARAM":"Duration of Exposure (days)","EXDURGR1":"<=30 days","TRTP":"Xanomeline Low Dose","TRT01P":"Xanomeline Low Dose","TRT01PN":null,"TRT01A":"Xanomeline Low Dose","SITEGR1":900,"SITEID":706,"TRTSDT":"2012-09-15","TRTEDT":"2012-09-24","ITTFL":"Y","SAFFL":"Y","EFFFL":"N","COMPLFL":"N"},{"STUDYID":"CDISCPILOT01","USUBJID":"01-706-1384","NDOSE":1,"PARAMCD":"CUMDOSE","AVAL":54,"PARAM":"Cumulative Dose (mg)","EXDURGR1":"<=30 days","TRTP":"Xanomeline Low Dose","TRT01P":"Xanomeline Low Dose","TRT01PN":null,"TRT01A":"Xanomeline Low Dose","SITEGR1":900,"SITEID":706,"TRTSDT":"2012-09-15","TRTEDT":"2012-09-24","ITTFL":"Y","SAFFL":"Y","EFFFL":"N","COMPLFL":"N"},{"STUDYID":"CDISCPILOT01","USUBJID":"01-706-1384","NDOSE":1,"PARAMCD":"AVGDD","AVAL":5.4,"PARAM":"Average Daily Dose (mg/day)","EXDURGR1":"<=30 days","TRTP":"Xanomeline Low Dose","TRT01P":"Xanomeline Low Dose","TRT01PN":null,"TRT01A":"Xanomeline Low Dose","SITEGR1":900,"SITEID":706,"TRTSDT":"2012-09-15","TRTEDT":"2012-09-24","ITTFL":"Y","SAFFL":"Y","EFFFL":"N","COMPLFL":"N"},{"STUDYID":"CDISCPILOT01","USUBJID":"01-707-1037","NDOSE":1,"PARAMCD":"TRTDUR","AVAL":5,"PARAM":"Duration of Exposure (days)","EXDURGR1":"<=30 days","TRTP":"Xanomeline Low Dose","TRT01P":"Xanomeline Low Dose","TRT01PN":null,"TRT01A":"Xanomeline Low Dose","SITEGR1":900,"SITEID":707,"TRTSDT":"2013-12-20","TRTEDT":"2013-12-24","ITTFL":"Y","SAFFL":"Y","EFFFL":"N","COMPLFL":"N"},{"STUDYID":"CDISCPILOT01","USUBJID":"01-707-1037","NDOSE":1,"PARAMCD":"CUMDOSE","AVAL":54,"PARAM":"Cumulative Dose (mg)","EXDURGR1":"<=30 days","TRTP":"Xanomeline Low Dose","TRT01P":"Xanomeline Low Dose","TRT01PN":null,"TRT01A":"Xanomeline Low Dose","SITEGR1":900,"SITEID":707,"TRTSDT":"2013-12-20","TRTEDT":"2013-12-24","ITTFL":"Y","SAFFL":"Y","EFFFL":"N","COMPLFL":"N"},{"STUDYID":"CDISCPILOT01","USUBJID":"01-707-1037","NDOSE":1,"PARAMCD":"AVGDD","AVAL":10.8,"PARAM":"Average Daily Dose (mg/day)","EXDURGR1":"<=30 days","TRTP":"Xanomeline Low Dose","TRT01P":"Xanomeline Low Dose","TRT01PN":null,"TRT01A":"Xanomeline Low Dose","SITEGR1":900,"SITEID":707,"TRTSDT":"2013-12-20","TRTEDT":"2013-12-24","ITTFL":"Y","SAFFL":"Y","EFFFL":"N","COMPLFL":"N"},{"STUDYID":"CDISCPILOT01","USUBJID":"01-707-1206","NDOSE":3,"PARAMCD":"TRTDUR","AVAL":181,"PARAM":"Duration of Exposure (days)","EXDURGR1":">168 days","TRTP":"Placebo","TRT01P":"Placebo","TRT01PN":null,"TRT01A":"Placebo","SITEGR1":900,"SITEID":707,"TRTSDT":"2013-10-28","TRTEDT":"2014-04-26","ITTFL":"Y","SAFFL":"Y","EFFFL":"N","COMPLFL":"Y"},{"STUDYID":"CDISCPILOT01","USUBJID":"01-707-1206","NDOSE":3,"PARAMCD":"CUMDOSE","AVAL":0,"PARAM":"Cumulative Dose (mg)","EXDURGR1":">168 days","TRTP":"Placebo","TRT01P":"Placebo","TRT01PN":null,"TRT01A":"Placebo","SITEGR1":900,"SITEID":707,"TRTSDT":"2013-10-28","TRTEDT":"2014-04-26","ITTFL":"Y","SAFFL":"Y","EFFFL":"N","COMPLFL":"Y"},{"STUDYID":"CDISCPILOT01","USUBJID":"01-707-1206","NDOSE":3,"PARAMCD":"AVGDD","AVAL":0,"PARAM":"Average Daily Dose (mg/day)","EXDURGR1":">168 days","TRTP":"Placebo","TRT01P":"Placebo","TRT01PN":null,"TRT01A":"Placebo","SITEGR1":900,"SITEID":707,"TRTSDT":"2013-10-28","TRTEDT":"2014-04-26","ITTFL":"Y","SAFFL":"Y","EFFFL":"N","COMPLFL":"Y"},{"STUDYID":"CDISCPILOT01","USUBJID":"01-708-1019","NDOSE":1,"PARAMCD":"TRTDUR","AVAL":13,"PARAM":"Duration of Exposure (days)","EXDURGR1":"<=30 days","TRTP":"Xanomeline Low Dose","TRT01P":"Xanomeline Low Dose","TRT01PN":null,"TRT01A":"Xanomeline Low Dose","SITEGR1":900,"SITEID":708,"TRTSDT":"2013-12-20","TRTEDT":"2014-01-01","ITTFL":"Y","SAFFL":"Y","EFFFL":"N","COMPLFL":"N"},{"STUDYID":"CDISCPILOT01","USUBJID":"01-708-1019","NDOSE":1,"PARAMCD":"CUMDOSE","AVAL":54,"PARAM":"Cumulative Dose (mg)","EXDURGR1":"<=30 days","TRTP":"Xanomeline Low Dose","TRT01P":"Xanomeline Low Dose","TRT01PN":null,"TRT01A":"Xanomeline Low Dose","SITEGR1":900,"SITEID":708,"TRTSDT":"2013-12-20","TRTEDT":"2014-01-01","ITTFL":"Y","SAFFL":"Y","EFFFL":"N","COMPLFL":"N"},{"STUDYID":"CDISCPILOT01","USUBJID":"01-708-1019","NDOSE":1,"PARAMCD":"AVGDD","AVAL":4.1538,"PARAM":"Average Daily Dose (mg/day)","EXDURGR1":"<=30 days","TRTP":"Xanomeline Low Dose","TRT01P":"Xanomeline Low Dose","TRT01PN":null,"TRT01A":"Xanomeline Low Dose","SITEGR1":900,"SITEID":708,"TRTSDT":"2013-12-20","TRTEDT":"2014-01-01","ITTFL":"Y","SAFFL":"Y","EFFFL":"N","COMPLFL":"N"},{"STUDYID":"CDISCPILOT01","USUBJID":"01-708-1032","NDOSE":2,"PARAMCD":"TRTDUR","AVAL":21,"PARAM":"Duration of Exposure (days)","EXDURGR1":"<=30 days","TRTP":"Xanomeline Low Dose","TRT01P":"Xanomeline Low Dose","TRT01PN":null,"TRT01A":"Xanomeline Low Dose","SITEGR1":900,"SITEID":708,"TRTSDT":"2013-02-09","TRTEDT":"2013-03-01","ITTFL":"Y","SAFFL":"Y","EFFFL":"N","COMPLFL":"N"},{"STUDYID":"CDISCPILOT01","USUBJID":"01-708-1032","NDOSE":2,"PARAMCD":"CUMDOSE","AVAL":108,"PARAM":"Cumulative Dose (mg)","EXDURGR1":"<=30 days","TRTP":"Xanomeline Low Dose","TRT01P":"Xanomeline Low Dose","TRT01PN":null,"TRT01A":"Xanomeline Low Dose","SITEGR1":900,"SITEID":708,"TRTSDT":"2013-02-09","TRTEDT":"2013-03-01","ITTFL":"Y","SAFFL":"Y","EFFFL":"N","COMPLFL":"N"},{"STUDYID":"CDISCPILOT01","USUBJID":"01-708-1032","NDOSE":2,"PARAMCD":"AVGDD","AVAL":5.1429,"PARAM":"Average Daily Dose (mg/day)","EXDURGR1":"<=30 days","TRTP":"Xanomeline Low Dose","TRT01P":"Xanomeline Low Dose","TRT01PN":null,"TRT01A":"Xanomeline Low Dose","SITEGR1":900,"SITEID":708,"TRTSDT":"2013-02-09","TRTEDT":"2013-03-01","ITTFL":"Y","SAFFL":"Y","EFFFL":"N","COMPLFL":"N"},{"STUDYID":"CDISCPILOT01","USUBJID":"01-708-1084","NDOSE":3,"PARAMCD":"TRTDUR","AVAL":187,"PARAM":"Duration of Exposure (days)","EXDURGR1":">168 days","TRTP":"Xanomeline Low Dose","TRT01P":"Xanomeline Low Dose","TRT01PN":null,"TRT01A":"Xanomeline Low Dose","SITEGR1":900,"SITEID":708,"TRTSDT":"2013-05-09","TRTEDT":"2013-11-11","ITTFL":"Y","SAFFL":"Y","EFFFL":"N","COMPLFL":"Y"},{"STUDYID":"CDISCPILOT01","USUBJID":"01-708-1084","NDOSE":3,"PARAMCD":"CUMDOSE","AVAL":162,"PARAM":"Cumulative Dose (mg)","EXDURGR1":">168 days","TRTP":"Xanomeline Low Dose","TRT01P":"Xanomeline Low Dose","TRT01PN":null,"TRT01A":"Xanomeline Low Dose","SITEGR1":900,"SITEID":708,"TRTSDT":"2013-05-09","TRTEDT":"2013-11-11","ITTFL":"Y","SAFFL":"Y","EFFFL":"N","COMPLFL":"Y"},{"STUDYID":"CDISCPILOT01","USUBJID":"01-708-1084","NDOSE":3,"PARAMCD":"AVGDD","AVAL":0.8663,"PARAM":"Average Daily Dose (mg/day)","EXDURGR1":">168 days","TRTP":"Xanomeline Low Dose","TRT01P":"Xanomeline Low Dose","TRT01PN":null,"TRT01A":"Xanomeline Low Dose","SITEGR1":900,"SITEID":708,"TRTSDT":"2013-05-09","TRTEDT":"2013-11-11","ITTFL":"Y","SAFFL":"Y","EFFFL":"N","COMPLFL":"Y"},{"STUDYID":"CDISCPILOT01","USUBJID":"01-708-1087","NDOSE":3,"PARAMCD":"TRTDUR","AVAL":189,"PARAM":"Duration of Exposure (days)","EXDURGR1":">168 days","TRTP":"Placebo","TRT01P":"Placebo","TRT01PN":null,"TRT01A":"Placebo","SITEGR1":900,"SITEID":708,"TRTSDT":"2012-10-22","TRTEDT":"2013-04-28","ITTFL":"Y","SAFFL":"Y","EFFFL":"N","COMPLFL":"Y"},{"STUDYID":"CDISCPILOT01","USUBJID":"01-708-1087","NDOSE":3,"PARAMCD":"CUMDOSE","AVAL":0,"PARAM":"Cumulative Dose (mg)","EXDURGR1":">168 days","TRTP":"Placebo","TRT01P":"Placebo","TRT01PN":null,"TRT01A":"Placebo","SITEGR1":900,"SITEID":708,"TRTSDT":"2012-10-22","TRTEDT":"2013-04-28","ITTFL":"Y","SAFFL":"Y","EFFFL":"N","COMPLFL":"Y"},{"STUDYID":"CDISCPILOT01","USUBJID":"01-708-1087","NDOSE":3,"PARAMCD":"AVGDD","AVAL":0,"PARAM":"Average Daily Dose (mg/day)","EXDURGR1":">168 days","TRTP":"Placebo","TRT01P":"Placebo","TRT01PN":null,"TRT01A":"Placebo","SITEGR1":900,"SITEID":708,"TRTSDT":"2012-10-22","TRTEDT":"2013-04-28","ITTFL":"Y","SAFFL":"Y","EFFFL":"N","COMPLFL":"Y"},{"STUDYID":"CDISCPILOT01","USUBJID":"01-708-1158","NDOSE":2,"PARAMCD":"TRTDUR","AVAL":42,"PARAM":"Duration of Exposure (days)","EXDURGR1":"31-90 days","TRTP":"Placebo","TRT01P":"Placebo","TRT01PN":null,"TRT01A":"Placebo","SITEGR1":900,"SITEID":708,"TRTSDT":"2014-02-08","TRTEDT":"2014-03-21","ITTFL":"Y","SAFFL":"Y","EFFFL":"N","COMPLFL":"N"},{"STUDYID":"CDISCPILOT01","USUBJID":"01-708-1158","NDOSE":2,"PARAMCD":"CUMDOSE","AVAL":0,"PARAM":"Cumulative Dose (mg)","EXDURGR1":"31-90 days","TRTP":"Placebo","TRT01P":"Placebo","TRT01PN":null,"TRT01A":"Placebo","SITEGR1":900,"SITEID":708,"TRTSDT":"2014-02-08","TRTEDT":"2014-03-21","ITTFL":"Y","SAFFL":"Y","EFFFL":"N","COMPLFL":"N"},{"STUDYID":"CDISCPILOT01","USUBJID":"01-708-1158","NDOSE":2,"PARAMCD":"AVGDD","AVAL":0,"PARAM":"Average Daily Dose (mg/day)","EXDURGR1":"31-90 days","TRTP":"Placebo","TRT01P":"Placebo","TRT01PN":null,"TRT01A":"Placebo","SITEGR1":900,"SITEID":708,"TRTSDT":"2014-02-08","TRTEDT":"2014-03-21","ITTFL":"Y","SAFFL":"Y","EFFFL":"N","COMPLFL":"N"},{"STUDYID":"CDISCPILOT01","USUBJID":"01-708-1171","NDOSE":3,"PARAMCD":"TRTDUR","AVAL":181,"PARAM":"Duration of Exposure (days)","EXDURGR1":">168 days","TRTP":"Placebo","TRT01P":"Placebo","TRT01PN":null,"TRT01A":"Placebo","SITEGR1":900,"SITEID":708,"TRTSDT":"2012-12-06","TRTEDT":"2013-06-04","ITTFL":"Y","SAFFL":"Y","EFFFL":"N","COMPLFL":"Y"},{"STUDYID":"CDISCPILOT01","USUBJID":"01-708-1171","NDOSE":3,"PARAMCD":"CUMDOSE","AVAL":0,"PARAM":"Cumulative Dose (mg)","EXDURGR1":">168 days","TRTP":"Placebo","TRT01P":"Placebo","TRT01PN":null,"TRT01A":"Placebo","SITEGR1":900,"SITEID":708,"TRTSDT":"2012-12-06","TRTEDT":"2013-06-04","ITTFL":"Y","SAFFL":"Y","EFFFL":"N","COMPLFL":"Y"},{"STUDYID":"CDISCPILOT01","USUBJID":"01-708-1171","NDOSE":3,"PARAMCD":"AVGDD","AVAL":0,"PARAM":"Average Daily Dose (mg/day)","EXDURGR1":">168 days","TRTP":"Placebo","TRT01P":"Placebo","TRT01PN":null,"TRT01A":"Placebo","SITEGR1":900,"SITEID":708,"TRTSDT":"2012-12-06","TRTEDT":"2013-06-04","ITTFL":"Y","SAFFL":"Y","EFFFL":"N","COMPLFL":"Y"},{"STUDYID":"CDISCPILOT01","USUBJID":"01-708-1178","NDOSE":2,"PARAMCD":"TRTDUR","AVAL":99,"PARAM":"Duration of Exposure (days)","EXDURGR1":"91-168 days","TRTP":"Xanomeline High Dose","TRT01P":"Xanomeline High Dose","TRT01PN":null,"TRT01A":"Xanomeline High Dose","SITEGR1":900,"SITEID":708,"TRTSDT":"2013-12-29","TRTEDT":"2014-04-06","ITTFL":"Y","SAFFL":"Y","EFFFL":"N","COMPLFL":"N"},{"STUDYID":"CDISCPILOT01","USUBJID":"01-708-1178","NDOSE":2,"PARAMCD":"CUMDOSE","AVAL":135,"PARAM":"Cumulative Dose (mg)","EXDURGR1":"91-168 days","TRTP":"Xanomeline High Dose","TRT01P":"Xanomeline High Dose","TRT01PN":null,"TRT01A":"Xanomeline High Dose","SITEGR1":900,"SITEID":708,"TRTSDT":"2013-12-29","TRTEDT":"2014-04-06","ITTFL":"Y","SAFFL":"Y","EFFFL":"N","COMPLFL":"N"},{"STUDYID":"CDISCPILOT01","USUBJID":"01-708-1178","NDOSE":2,"PARAMCD":"AVGDD","AVAL":1.3636,"PARAM":"Average Daily Dose (mg/day)","EXDURGR1":"91-168 days","TRTP":"Xanomeline High Dose","TRT01P":"Xanomeline High Dose","TRT01PN":null,"TRT01A":"Xanomeline High Dose","SITEGR1":900,"SITEID":708,"TRTSDT":"2013-12-29","TRTEDT":"2014-04-06","ITTFL":"Y","SAFFL":"Y","EFFFL":"N","COMPLFL":"N"},{"STUDYID":"CDISCPILOT01","USUBJID":"01-708-1213","NDOSE":1,"PARAMCD":"TRTDUR","AVAL":14,"PARAM":"Duration of Exposure (days)","EXDURGR1":"<=30 days","TRTP":"Xanomeline High Dose","TRT01P":"Xanomeline High Dose","TRT01PN":null,"TRT01A":"Xanomeline Low Dose","SITEGR1":900,"SITEID":708,"TRTSDT":"2013-02-09","TRTEDT":"2013-02-22","ITTFL":"Y","SAFFL":"Y","EFFFL":"N","COMPLFL":"N"},{"STUDYID":"CDISCPILOT01","USUBJID":"01-708-1213","NDOSE":1,"PARAMCD":"CUMDOSE","AVAL":54,"PARAM":"Cumulative Dose (mg)","EXDURGR1":"<=30 days","TRTP":"Xanomeline High Dose","TRT01P":"Xanomeline High Dose","TRT01PN":null,"TRT01A":"Xanomeline Low Dose","SITEGR1":900,"SITEID":708,"TRTSDT":"2013-02-09","TRTEDT":"2013-02-22","ITTFL":"Y","SAFFL":"Y","EFFFL":"N","COMPLFL":"N"},{"STUDYID":"CDISCPILOT01","USUBJID":"01-708-1213","NDOSE":1,"PARAMCD":"AVGDD","AVAL":3.8571,"PARAM":"Average Daily Dose (mg/day)","EXDURGR1":"<=30 days","TRTP":"Xanomeline High Dose","TRT01P":"Xanomeline High Dose","TRT01PN":null,"TRT01A":"Xanomeline Low Dose","SITEGR1":900,"SITEID":708,"TRTSDT":"2013-02-09","TRTEDT":"2013-02-22","ITTFL":"Y","SAFFL":"Y","EFFFL":"N","COMPLFL":"N"},{"STUDYID":"CDISCPILOT01","USUBJID":"01-708-1216","NDOSE":2,"PARAMCD":"TRTDUR","AVAL":37,"PARAM":"Duration of Exposure (days)","EXDURGR1":"31-90 days","TRTP":"Xanomeline High Dose","TRT01P":"Xanomeline High Dose","TRT01PN":null,"TRT01A":"Xanomeline High Dose","SITEGR1":900,"SITEID":708,"TRTSDT":"2012-10-24","TRTEDT":"2012-11-29","ITTFL":"Y","SAFFL":"Y","EFFFL":"N","COMPLFL":"N"},{"STUDYID":"CDISCPILOT01","USUBJID":"01-708-1216","NDOSE":2,"PARAMCD":"CUMDOSE","AVAL":135,"PARAM":"Cumulative Dose (mg)","EXDURGR1":"31-90 days","TRTP":"Xanomeline High Dose","TRT01P":"Xanomeline High Dose","TRT01PN":null,"TRT01A":"Xanomeline High Dose","SITEGR1":900,"SITEID":708,"TRTSDT":"2012-10-24","TRTEDT":"2012-11-29","ITTFL":"Y","SAFFL":"Y","EFFFL":"N","COMPLFL":"N"},{"STUDYID":"CDISCPILOT01","USUBJID":"01-708-1216","NDOSE":2,"PARAMCD":"AVGDD","AVAL":3.6486,"PARAM":"Average Daily Dose (mg/day)","EXDURGR1":"31-90 days","TRTP":"Xanomeline High Dose","TRT01P":"Xanomeline High Dose","TRT01PN":null,"TRT01A":"Xanomeline High Dose","SITEGR1":900,"SITEID":708,"TRTSDT":"2012-10-24","TRTEDT":"2012-11-29","ITTFL":"Y","SAFFL":"Y","EFFFL":"N","COMPLFL":"N"},{"STUDYID":"CDISCPILOT01","USUBJID":"01-708-1236","NDOSE":1,"PARAMCD":"TRTDUR","AVAL":1,"PARAM":"Duration of Exposure (days)","EXDURGR1":"<=30 days","TRTP":"Xanomeline High Dose","TRT01P":"Xanomeline High Dose","TRT01PN":null,"TRT01A":"Xanomeline Low Dose","SITEGR1":900,"SITEID":708,"TRTSDT":"2013-09-21","TRTEDT":"2013-09-21","ITTFL":"Y","SAFFL":"Y","EFFFL":"N","COMPLFL":"N"},{"STUDYID":"CDISCPILOT01","USUBJID":"01-708-1236","NDOSE":1,"PARAMCD":"CUMDOSE","AVAL":54,"PARAM":"Cumulative Dose (mg)","EXDURGR1":"<=30 days","TRTP":"Xanomeline High Dose","TRT01P":"Xanomeline High Dose","TRT01PN":null,"TRT01A":"Xanomeline Low Dose","SITEGR1":900,"SITEID":708,"TRTSDT":"2013-09-21","TRTEDT":"2013-09-21","ITTFL":"Y","SAFFL":"Y","EFFFL":"N","COMPLFL":"N"},{"STUDYID":"CDISCPILOT01","USUBJID":"01-708-1236","NDOSE":1,"PARAMCD":"AVGDD","AVAL":54,"PARAM":"Average Daily Dose (mg/day)","EXDURGR1":"<=30 days","TRTP":"Xanomeline High Dose","TRT01P":"Xanomeline High Dose","TRT01PN":null,"TRT01A":"Xanomeline Low Dose","SITEGR1":900,"SITEID":708,"TRTSDT":"2013-09-21","TRTEDT":"2013-09-21","ITTFL":"Y","SAFFL":"Y","EFFFL":"N","COMPLFL":"N"},{"STUDYID":"CDISCPILOT01","USUBJID":"01-708-1253","NDOSE":3,"PARAMCD":"TRTDUR","AVAL":183,"PARAM":"Duration of Exposure (days)","EXDURGR1":">168 days","TRTP":"Placebo","TRT01P":"Placebo","TRT01PN":null,"TRT01A":"Placebo","SITEGR1":900,"SITEID":708,"TRTSDT":"2013-05-07","TRTEDT":"2013-11-05","ITTFL":"Y","SAFFL":"Y","EFFFL":"N","COMPLFL":"Y"},{"STUDYID":"CDISCPILOT01","USUBJID":"01-708-1253","NDOSE":3,"PARAMCD":"CUMDOSE","AVAL":0,"PARAM":"Cumulative Dose (mg)","EXDURGR1":">168 days","TRTP":"Placebo","TRT01P":"Placebo","TRT01PN":null,"TRT01A":"Placebo","SITEGR1":900,"SITEID":708,"TRTSDT":"2013-05-07","TRTEDT":"2013-11-05","ITTFL":"Y","SAFFL":"Y","EFFFL":"N","COMPLFL":"Y"},{"STUDYID":"CDISCPILOT01","USUBJID":"01-708-1253","NDOSE":3,"PARAMCD":"AVGDD","AVAL":0,"PARAM":"Average Daily Dose (mg/day)","EXDURGR1":">168 days","TRTP":"Placebo","TRT01P":"Placebo","TRT01PN":null,"TRT01A":"Placebo","SITEGR1":900,"SITEID":708,"TRTSDT":"2013-05-07","TRTEDT":"2013-11-05","ITTFL":"Y","SAFFL":"Y","EFFFL":"N","COMPLFL":"Y"},{"STUDYID":"CDISCPILOT01","USUBJID":"01-708-1272","NDOSE":2,"PARAMCD":"TRTDUR","AVAL":45,"PARAM":"Duration of Exposure (days)","EXDURGR1":"31-90 days","TRTP":"Xanomeline Low Dose","TRT01P":"Xanomeline Low Dose","TRT01PN":null,"TRT01A":"Xanomeline Low Dose","SITEGR1":900,"SITEID":708,"TRTSDT":"2013-02-06","TRTEDT":"2013-03-22","ITTFL":"Y","SAFFL":"Y","EFFFL":"N","COMPLFL":"N"},{"STUDYID":"CDISCPILOT01","USUBJID":"01-708-1272","NDOSE":2,"PARAMCD":"CUMDOSE","AVAL":108,"PARAM":"Cumulative Dose (mg)","EXDURGR1":"31-90 days","TRTP":"Xanomeline Low Dose","TRT01P":"Xanomeline Low Dose","TRT01PN":null,"TRT01A":"Xanomeline Low Dose","SITEGR1":900,"SITEID":708,"TRTSDT":"2013-02-06","TRTEDT":"2013-03-22","ITTFL":"Y","SAFFL":"Y","EFFFL":"N","COMPLFL":"N"},{"STUDYID":"CDISCPILOT01","USUBJID":"01-708-1272","NDOSE":2,"PARAMCD":"AVGDD","AVAL":2.4,"PARAM":"Average Daily Dose (mg/day)","EXDURGR1":"31-90 days","TRTP":"Xanomeline Low Dose","TRT01P":"Xanomeline Low Dose","TRT01PN":null,"TRT01A":"Xanomeline Low Dose","SITEGR1":900,"SITEID":708,"TRTSDT":"2013-02-06","TRTEDT":"2013-03-22","ITTFL":"Y","SAFFL":"Y","EFFFL":"N","COMPLFL":"N"},{"STUDYID":"CDISCPILOT01","USUBJID":"01-708-1286","NDOSE":3,"PARAMCD":"TRTDUR","AVAL":180,"PARAM":"Duration of Exposure (days)","EXDURGR1":">168 days","TRTP":"Placebo","TRT01P":"Placebo","TRT01PN":null,"TRT01A":"Placebo","SITEGR1":900,"SITEID":708,"TRTSDT":"2013-09-10","TRTEDT":"2014-03-08","ITTFL":"Y","SAFFL":"Y","EFFFL":"N","COMPLFL":"Y"},{"STUDYID":"CDISCPILOT01","USUBJID":"01-708-1286","NDOSE":3,"PARAMCD":"CUMDOSE","AVAL":0,"PARAM":"Cumulative Dose (mg)","EXDURGR1":">168 days","TRTP":"Placebo","TRT01P":"Placebo","TRT01PN":null,"TRT01A":"Placebo","SITEGR1":900,"SITEID":708,"TRTSDT":"2013-09-10","TRTEDT":"2014-03-08","ITTFL":"Y","SAFFL":"Y","EFFFL":"N","COMPLFL":"Y"},{"STUDYID":"CDISCPILOT01","USUBJID":"01-708-1286","NDOSE":3,"PARAMCD":"AVGDD","AVAL":0,"PARAM":"Average Daily Dose (mg/day)","EXDURGR1":">168 days","TRTP":"Placebo","TRT01P":"Placebo","TRT01PN":null,"TRT01A":"Placebo","SITEGR1":900,"SITEID":708,"TRTSDT":"2013-09-10","TRTEDT":"2014-03-08","ITTFL":"Y","SAFFL":"Y","EFFFL":"N","COMPLFL":"Y"},{"STUDYID":"CDISCPILOT01","USUBJID":"01-708-1296","NDOSE":3,"PARAMCD":"TRTDUR","AVAL":182,"PARAM":"Duration of Exposure (days)","EXDURGR1":">168 days","TRTP":"Placebo","TRT01P":"Placebo","TRT01PN":null,"TRT01A":"Placebo","SITEGR1":900,"SITEID":708,"TRTSDT":"2013-06-14","TRTEDT":"2013-12-12","ITTFL":"Y","SAFFL":"Y","EFFFL":"N","COMPLFL":"Y"},{"STUDYID":"CDISCPILOT01","USUBJID":"01-708-1296","NDOSE":3,"PARAMCD":"CUMDOSE","AVAL":0,"PARAM":"Cumulative Dose (mg)","EXDURGR1":">168 days","TRTP":"Placebo","TRT01P":"Placebo","TRT01PN":null,"TRT01A":"Placebo","SITEGR1":900,"SITEID":708,"TRTSDT":"2013-06-14","TRTEDT":"2013-12-12","ITTFL":"Y","SAFFL":"Y","EFFFL":"N","COMPLFL":"Y"},{"STUDYID":"CDISCPILOT01","USUBJID":"01-708-1296","NDOSE":3,"PARAMCD":"AVGDD","AVAL":0,"PARAM":"Average Daily Dose (mg/day)","EXDURGR1":">168 days","TRTP":"Placebo","TRT01P":"Placebo","TRT01PN":null,"TRT01A":"Placebo","SITEGR1":900,"SITEID":708,"TRTSDT":"2013-06-14","TRTEDT":"2013-12-12","ITTFL":"Y","SAFFL":"Y","EFFFL":"N","COMPLFL":"Y"},{"STUDYID":"CDISCPILOT01","USUBJID":"01-708-1297","NDOSE":2,"PARAMCD":"TRTDUR","AVAL":99,"PARAM":"Duration of Exposure (days)","EXDURGR1":"91-168 days","TRTP":"Xanomeline Low Dose","TRT01P":"Xanomeline Low Dose","TRT01PN":null,"TRT01A":"Xanomeline Low Dose","SITEGR1":900,"SITEID":708,"TRTSDT":"2013-01-25","TRTEDT":"2013-05-03","ITTFL":"Y","SAFFL":"Y","EFFFL":"N","COMPLFL":"N"},{"STUDYID":"CDISCPILOT01","USUBJID":"01-708-1297","NDOSE":2,"PARAMCD":"CUMDOSE","AVAL":108,"PARAM":"Cumulative Dose (mg)","EXDURGR1":"91-168 days","TRTP":"Xanomeline Low Dose","TRT01P":"Xanomeline Low Dose","TRT01PN":null,"TRT01A":"Xanomeline Low Dose","SITEGR1":900,"SITEID":708,"TRTSDT":"2013-01-25","TRTEDT":"2013-05-03","ITTFL":"Y","SAFFL":"Y","EFFFL":"N","COMPLFL":"N"},{"STUDYID":"CDISCPILOT01","USUBJID":"01-708-1297","NDOSE":2,"PARAMCD":"AVGDD","AVAL":1.0909,"PARAM":"Average Daily Dose (mg/day)","EXDURGR1":"91-168 days","TRTP":"Xanomeline Low Dose","TRT01P":"Xanomeline Low Dose","TRT01PN":null,"TRT01A":"Xanomeline Low Dose","SITEGR1":900,"SITEID":708,"TRTSDT":"2013-01-25","TRTEDT":"2013-05-03","ITTFL":"Y","SAFFL":"Y","EFFFL":"N","COMPLFL":"N"},{"STUDYID":"CDISCPILOT01","USUBJID":"01-708-1316","NDOSE":3,"PARAMCD":"TRTDUR","AVAL":191,"PARAM":"Duration of Exposure (days)","EXDURGR1":">168 days","TRTP":"Placebo","TRT01P":"Placebo","TRT01PN":null,"TRT01A":"Placebo","SITEGR1":900,"SITEID":708,"TRTSDT":"2013-08-23","TRTEDT":"2014-03-01","ITTFL":"Y","SAFFL":"Y","EFFFL":"N","COMPLFL":"Y"},{"STUDYID":"CDISCPILOT01","USUBJID":"01-708-1316","NDOSE":3,"PARAMCD":"CUMDOSE","AVAL":0,"PARAM":"Cumulative Dose (mg)","EXDURGR1":">168 days","TRTP":"Placebo","TRT01P":"Placebo","TRT01PN":null,"TRT01A":"Placebo","SITEGR1":900,"SITEID":708,"TRTSDT":"2013-08-23","TRTEDT":"2014-03-01","ITTFL":"Y","SAFFL":"Y","EFFFL":"N","COMPLFL":"Y"},{"STUDYID":"CDISCPILOT01","USUBJID":"01-708-1316","NDOSE":3,"PARAMCD":"AVGDD","AVAL":0,"PARAM":"Average Daily Dose (mg/day)","EXDURGR1":">168 days","TRTP":"Placebo","TRT01P":"Placebo","TRT01PN":null,"TRT01A":"Placebo","SITEGR1":900,"SITEID":708,"TRTSDT":"2013-08-23","TRTEDT":"2014-03-01","ITTFL":"Y","SAFFL":"Y","EFFFL":"N","COMPLFL":"Y"},{"STUDYID":"CDISCPILOT01","USUBJID":"01-708-1336","NDOSE":3,"PARAMCD":"TRTDUR","AVAL":181,"PARAM":"Duration of Exposure (days)","EXDURGR1":">168 days","TRTP":"Xanomeline High Dose","TRT01P":"Xanomeline High Dose","TRT01PN":null,"TRT01A":"Xanomeline High Dose","SITEGR1":900,"SITEID":708,"TRTSDT":"2012-12-07","TRTEDT":"2013-06-05","ITTFL":"Y","SAFFL":"Y","EFFFL":"N","COMPLFL":"Y"},{"STUDYID":"CDISCPILOT01","USUBJID":"01-708-1336","NDOSE":3,"PARAMCD":"CUMDOSE","AVAL":189,"PARAM":"Cumulative Dose (mg)","EXDURGR1":">168 days","TRTP":"Xanomeline High Dose","TRT01P":"Xanomeline High Dose","TRT01PN":null,"TRT01A":"Xanomeline High Dose","SITEGR1":900,"SITEID":708,"TRTSDT":"2012-12-07","TRTEDT":"2013-06-05","ITTFL":"Y","SAFFL":"Y","EFFFL":"N","COMPLFL":"Y"},{"STUDYID":"CDISCPILOT01","USUBJID":"01-708-1336","NDOSE":3,"PARAMCD":"AVGDD","AVAL":1.0442,"PARAM":"Average Daily Dose (mg/day)","EXDURGR1":">168 days","TRTP":"Xanomeline High Dose","TRT01P":"Xanomeline High Dose","TRT01PN":null,"TRT01A":"Xanomeline High Dose","SITEGR1":900,"SITEID":708,"TRTSDT":"2012-12-07","TRTEDT":"2013-06-05","ITTFL":"Y","SAFFL":"Y","EFFFL":"N","COMPLFL":"Y"},{"STUDYID":"CDISCPILOT01","USUBJID":"01-708-1342","NDOSE":3,"PARAMCD":"TRTDUR","AVAL":182,"PARAM":"Duration of Exposure (days)","EXDURGR1":">168 days","TRTP":"Placebo","TRT01P":"Placebo","TRT01PN":null,"TRT01A":"Placebo","SITEGR1":900,"SITEID":708,"TRTSDT":"2012-12-29","TRTEDT":"2013-06-28","ITTFL":"Y","SAFFL":"Y","EFFFL":"N","COMPLFL":"Y"},{"STUDYID":"CDISCPILOT01","USUBJID":"01-708-1342","NDOSE":3,"PARAMCD":"CUMDOSE","AVAL":0,"PARAM":"Cumulative Dose (mg)","EXDURGR1":">168 days","TRTP":"Placebo","TRT01P":"Placebo","TRT01PN":null,"TRT01A":"Placebo","SITEGR1":900,"SITEID":708,"TRTSDT":"2012-12-29","TRTEDT":"2013-06-28","ITTFL":"Y","SAFFL":"Y","EFFFL":"N","COMPLFL":"Y"},{"STUDYID":"CDISCPILOT01","USUBJID":"01-708-1342","NDOSE":3,"PARAMCD":"AVGDD","AVAL":0,"PARAM":"Average Daily Dose (mg/day)","EXDURGR1":">168 days","TRTP":"Placebo","TRT01P":"Placebo","TRT01PN":null,"TRT01A":"Placebo","SITEGR1":900,"SITEID":708,"TRTSDT":"2012-12-29","TRTEDT":"2013-06-28","ITTFL":"Y","SAFFL":"Y","EFFFL":"N","COMPLFL":"Y"},{"STUDYID":"CDISCPILOT01","USUBJID":"01-708-1347","NDOSE":2,"PARAMCD":"TRTDUR","AVAL":60,"PARAM":"Duration of Exposure (days)","EXDURGR1":"31-90 days","TRTP":"Xanomeline High Dose","TRT01P":"Xanomeline High Dose","TRT01PN":null,"TRT01A":"Xanomeline High Dose","SITEGR1":900,"SITEID":708,"TRTSDT":"2013-04-20","TRTEDT":"2013-06-18","ITTFL":"Y","SAFFL":"Y","EFFFL":"N","COMPLFL":"N"},{"STUDYID":"CDISCPILOT01","USUBJID":"01-708-1347","NDOSE":2,"PARAMCD":"CUMDOSE","AVAL":135,"PARAM":"Cumulative Dose (mg)","EXDURGR1":"31-90 days","TRTP":"Xanomeline High Dose","TRT01P":"Xanomeline High Dose","TRT01PN":null,"TRT01A":"Xanomeline High Dose","SITEGR1":900,"SITEID":708,"TRTSDT":"2013-04-20","TRTEDT":"2013-06-18","ITTFL":"Y","SAFFL":"Y","EFFFL":"N","COMPLFL":"N"},{"STUDYID":"CDISCPILOT01","USUBJID":"01-708-1347","NDOSE":2,"PARAMCD":"AVGDD","AVAL":2.25,"PARAM":"Average Daily Dose (mg/day)","EXDURGR1":"31-90 days","TRTP":"Xanomeline High Dose","TRT01P":"Xanomeline High Dose","TRT01PN":null,"TRT01A":"Xanomeline High Dose","SITEGR1":900,"SITEID":708,"TRTSDT":"2013-04-20","TRTEDT":"2013-06-18","ITTFL":"Y","SAFFL":"Y","EFFFL":"N","COMPLFL":"N"},{"STUDYID":"CDISCPILOT01","USUBJID":"01-708-1348","NDOSE":3,"PARAMCD":"TRTDUR","AVAL":193,"PARAM":"Duration of Exposure (days)","EXDURGR1":">168 days","TRTP":"Xanomeline Low Dose","TRT01P":"Xanomeline Low Dose","TRT01PN":null,"TRT01A":"Xanomeline Low Dose","SITEGR1":900,"SITEID":708,"TRTSDT":"2013-08-05","TRTEDT":"2014-02-13","ITTFL":"Y","SAFFL":"Y","EFFFL":"N","COMPLFL":"Y"},{"STUDYID":"CDISCPILOT01","USUBJID":"01-708-1348","NDOSE":3,"PARAMCD":"CUMDOSE","AVAL":162,"PARAM":"Cumulative Dose (mg)","EXDURGR1":">168 days","TRTP":"Xanomeline Low Dose","TRT01P":"Xanomeline Low Dose","TRT01PN":null,"TRT01A":"Xanomeline Low Dose","SITEGR1":900,"SITEID":708,"TRTSDT":"2013-08-05","TRTEDT":"2014-02-13","ITTFL":"Y","SAFFL":"Y","EFFFL":"N","COMPLFL":"Y"},{"STUDYID":"CDISCPILOT01","USUBJID":"01-708-1348","NDOSE":3,"PARAMCD":"AVGDD","AVAL":0.8394,"PARAM":"Average Daily Dose (mg/day)","EXDURGR1":">168 days","TRTP":"Xanomeline Low Dose","TRT01P":"Xanomeline Low Dose","TRT01PN":null,"TRT01A":"Xanomeline Low Dose","SITEGR1":900,"SITEID":708,"TRTSDT":"2013-08-05","TRTEDT":"2014-02-13","ITTFL":"Y","SAFFL":"Y","EFFFL":"N","COMPLFL":"Y"},{"STUDYID":"CDISCPILOT01","USUBJID":"01-708-1353","NDOSE":2,"PARAMCD":"TRTDUR","AVAL":56,"PARAM":"Duration of Exposure (days)","EXDURGR1":"31-90 days","TRTP":"Xanomeline Low Dose","TRT01P":"Xanomeline Low Dose","TRT01PN":null,"TRT01A":"Xanomeline Low Dose","SITEGR1":900,"SITEID":708,"TRTSDT":"2013-07-04","TRTEDT":"2013-08-28","ITTFL":"Y","SAFFL":"Y","EFFFL":"N","COMPLFL":"N"},{"STUDYID":"CDISCPILOT01","USUBJID":"01-708-1353","NDOSE":2,"PARAMCD":"CUMDOSE","AVAL":108,"PARAM":"Cumulative Dose (mg)","EXDURGR1":"31-90 days","TRTP":"Xanomeline Low Dose","TRT01P":"Xanomeline Low Dose","TRT01PN":null,"TRT01A":"Xanomeline Low Dose","SITEGR1":900,"SITEID":708,"TRTSDT":"2013-07-04","TRTEDT":"2013-08-28","ITTFL":"Y","SAFFL":"Y","EFFFL":"N","COMPLFL":"N"},{"STUDYID":"CDISCPILOT01","USUBJID":"01-708-1353","NDOSE":2,"PARAMCD":"AVGDD","AVAL":1.9286,"PARAM":"Average Daily Dose (mg/day)","EXDURGR1":"31-90 days","TRTP":"Xanomeline Low Dose","TRT01P":"Xanomeline Low Dose","TRT01PN":null,"TRT01A":"Xanomeline Low Dose","SITEGR1":900,"SITEID":708,"TRTSDT":"2013-07-04","TRTEDT":"2013-08-28","ITTFL":"Y","SAFFL":"Y","EFFFL":"N","COMPLFL":"N"},{"STUDYID":"CDISCPILOT01","USUBJID":"01-708-1372","NDOSE":1,"PARAMCD":"TRTDUR","AVAL":8,"PARAM":"Duration of Exposure (days)","EXDURGR1":"<=30 days","TRTP":"Xanomeline High Dose","TRT01P":"Xanomeline High Dose","TRT01PN":null,"TRT01A":"Xanomeline Low Dose","SITEGR1":900,"SITEID":708,"TRTSDT":"2013-04-12","TRTEDT":"2013-04-19","ITTFL":"Y","SAFFL":"Y","EFFFL":"N","COMPLFL":"N"},{"STUDYID":"CDISCPILOT01","USUBJID":"01-708-1372","NDOSE":1,"PARAMCD":"CUMDOSE","AVAL":54,"PARAM":"Cumulative Dose (mg)","EXDURGR1":"<=30 days","TRTP":"Xanomeline High Dose","TRT01P":"Xanomeline High Dose","TRT01PN":null,"TRT01A":"Xanomeline Low Dose","SITEGR1":900,"SITEID":708,"TRTSDT":"2013-04-12","TRTEDT":"2013-04-19","ITTFL":"Y","SAFFL":"Y","EFFFL":"N","COMPLFL":"N"},{"STUDYID":"CDISCPILOT01","USUBJID":"01-708-1372","NDOSE":1,"PARAMCD":"AVGDD","AVAL":6.75,"PARAM":"Average Daily Dose (mg/day)","EXDURGR1":"<=30 days","TRTP":"Xanomeline High Dose","TRT01P":"Xanomeline High Dose","TRT01PN":null,"TRT01A":"Xanomeline Low Dose","SITEGR1":900,"SITEID":708,"TRTSDT":"2013-04-12","TRTEDT":"2013-04-19","ITTFL":"Y","SAFFL":"Y","EFFFL":"N","COMPLFL":"N"},{"STUDYID":"CDISCPILOT01","USUBJID":"01-708-1378","NDOSE":2,"PARAMCD":"TRTDUR","AVAL":148,"PARAM":"Duration of Exposure (days)","EXDURGR1":"91-168 days","TRTP":"Placebo","TRT01P":"Placebo","TRT01PN":null,"TRT01A":"Placebo","SITEGR1":900,"SITEID":708,"TRTSDT":"2013-09-03","TRTEDT":"2014-01-28","ITTFL":"Y","SAFFL":"Y","EFFFL":"N","COMPLFL":"N"},{"STUDYID":"CDISCPILOT01","USUBJID":"01-708-1378","NDOSE":2,"PARAMCD":"CUMDOSE","AVAL":0,"PARAM":"Cumulative Dose (mg)","EXDURGR1":"91-168 days","TRTP":"Placebo","TRT01P":"Placebo","TRT01PN":null,"TRT01A":"Placebo","SITEGR1":900,"SITEID":708,"TRTSDT":"2013-09-03","TRTEDT":"2014-01-28","ITTFL":"Y","SAFFL":"Y","EFFFL":"N","COMPLFL":"N"},{"STUDYID":"CDISCPILOT01","USUBJID":"01-708-1378","NDOSE":2,"PARAMCD":"AVGDD","AVAL":0,"PARAM":"Average Daily Dose (mg/day)","EXDURGR1":"91-168 days","TRTP":"Placebo","TRT01P":"Placebo","TRT01PN":null,"TRT01A":"Placebo","SITEGR1":900,"SITEID":708,"TRTSDT":"2013-09-03","TRTEDT":"2014-01-28","ITTFL":"Y","SAFFL":"Y","EFFFL":"N","COMPLFL":"N"},{"STUDYID":"CDISCPILOT01","USUBJID":"01-708-1406","NDOSE":3,"PARAMCD":"TRTDUR","AVAL":189,"PARAM":"Duration of Exposure (days)","EXDURGR1":">168 days","TRTP":"Xanomeline High Dose","TRT01P":"Xanomeline High Dose","TRT01PN":null,"TRT01A":"Xanomeline High Dose","SITEGR1":900,"SITEID":708,"TRTSDT":"2013-12-26","TRTEDT":"2014-07-02","ITTFL":"Y","SAFFL":"Y","EFFFL":"N","COMPLFL":"Y"},{"STUDYID":"CDISCPILOT01","USUBJID":"01-708-1406","NDOSE":3,"PARAMCD":"CUMDOSE","AVAL":189,"PARAM":"Cumulative Dose (mg)","EXDURGR1":">168 days","TRTP":"Xanomeline High Dose","TRT01P":"Xanomeline High Dose","TRT01PN":null,"TRT01A":"Xanomeline High Dose","SITEGR1":900,"SITEID":708,"TRTSDT":"2013-12-26","TRTEDT":"2014-07-02","ITTFL":"Y","SAFFL":"Y","EFFFL":"N","COMPLFL":"Y"},{"STUDYID":"CDISCPILOT01","USUBJID":"01-708-1406","NDOSE":3,"PARAMCD":"AVGDD","AVAL":1,"PARAM":"Average Daily Dose (mg/day)","EXDURGR1":">168 days","TRTP":"Xanomeline High Dose","TRT01P":"Xanomeline High Dose","TRT01PN":null,"TRT01A":"Xanomeline High Dose","SITEGR1":900,"SITEID":708,"TRTSDT":"2013-12-26","TRTEDT":"2014-07-02","ITTFL":"Y","SAFFL":"Y","EFFFL":"N","COMPLFL":"Y"},{"STUDYID":"CDISCPILOT01","USUBJID":"01-708-1428","NDOSE":2,"PARAMCD":"TRTDUR","AVAL":36,"PARAM":"Duration of Exposure (days)","EXDURGR1":"31-90 days","TRTP":"Xanomeline Low Dose","TRT01P":"Xanomeline Low Dose","TRT01PN":null,"TRT01A":"Xanomeline Low Dose","SITEGR1":900,"SITEID":708,"TRTSDT":"2013-11-09","TRTEDT":"2013-12-14","ITTFL":"Y","SAFFL":"Y","EFFFL":"N","COMPLFL":"N"},{"STUDYID":"CDISCPILOT01","USUBJID":"01-708-1428","NDOSE":2,"PARAMCD":"CUMDOSE","AVAL":108,"PARAM":"Cumulative Dose (mg)","EXDURGR1":"31-90 days","TRTP":"Xanomeline Low Dose","TRT01P":"Xanomeline Low Dose","TRT01PN":null,"TRT01A":"Xanomeline Low Dose","SITEGR1":900,"SITEID":708,"TRTSDT":"2013-11-09","TRTEDT":"2013-12-14","ITTFL":"Y","SAFFL":"Y","EFFFL":"N","COMPLFL":"N"},{"STUDYID":"CDISCPILOT01","USUBJID":"01-708-1428","NDOSE":2,"PARAMCD":"AVGDD","AVAL":3,"PARAM":"Average Daily Dose (mg/day)","EXDURGR1":"31-90 days","TRTP":"Xanomeline Low Dose","TRT01P":"Xanomeline Low Dose","TRT01PN":null,"TRT01A":"Xanomeline Low Dose","SITEGR1":900,"SITEID":708,"TRTSDT":"2013-11-09","TRTEDT":"2013-12-14","ITTFL":"Y","SAFFL":"Y","EFFFL":"N","COMPLFL":"N"},{"STUDYID":"CDISCPILOT01","USUBJID":"01-709-1001","NDOSE":3,"PARAMCD":"TRTDUR","AVAL":183,"PARAM":"Duration of Exposure (days)","EXDURGR1":">168 days","TRTP":"Placebo","TRT01P":"Placebo","TRT01PN":null,"TRT01A":"Placebo","SITEGR1":900,"SITEID":709,"TRTSDT":"2013-10-08","TRTEDT":"2014-04-08","ITTFL":"Y","SAFFL":"Y","EFFFL":"N","COMPLFL":"Y"},{"STUDYID":"CDISCPILOT01","USUBJID":"01-709-1001","NDOSE":3,"PARAMCD":"CUMDOSE","AVAL":0,"PARAM":"Cumulative Dose (mg)","EXDURGR1":">168 days","TRTP":"Placebo","TRT01P":"Placebo","TRT01PN":null,"TRT01A":"Placebo","SITEGR1":900,"SITEID":709,"TRTSDT":"2013-10-08","TRTEDT":"2014-04-08","ITTFL":"Y","SAFFL":"Y","EFFFL":"N","COMPLFL":"Y"},{"STUDYID":"CDISCPILOT01","USUBJID":"01-709-1001","NDOSE":3,"PARAMCD":"AVGDD","AVAL":0,"PARAM":"Average Daily Dose (mg/day)","EXDURGR1":">168 days","TRTP":"Placebo","TRT01P":"Placebo","TRT01PN":null,"TRT01A":"Placebo","SITEGR1":900,"SITEID":709,"TRTSDT":"2013-10-08","TRTEDT":"2014-04-08","ITTFL":"Y","SAFFL":"Y","EFFFL":"N","COMPLFL":"Y"},{"STUDYID":"CDISCPILOT01","USUBJID":"01-709-1007","NDOSE":2,"PARAMCD":"TRTDUR","AVAL":29,"PARAM":"Duration of Exposure (days)","EXDURGR1":"<=30 days","TRTP":"Xanomeline Low Dose","TRT01P":"Xanomeline Low Dose","TRT01PN":null,"TRT01A":"Xanomeline Low Dose","SITEGR1":900,"SITEID":709,"TRTSDT":"2012-07-31","TRTEDT":"2012-08-28","ITTFL":"Y","SAFFL":"Y","EFFFL":"N","COMPLFL":"N"},{"STUDYID":"CDISCPILOT01","USUBJID":"01-709-1007","NDOSE":2,"PARAMCD":"CUMDOSE","AVAL":108,"PARAM":"Cumulative Dose (mg)","EXDURGR1":"<=30 days","TRTP":"Xanomeline Low Dose","TRT01P":"Xanomeline Low Dose","TRT01PN":null,"TRT01A":"Xanomeline Low Dose","SITEGR1":900,"SITEID":709,"TRTSDT":"2012-07-31","TRTEDT":"2012-08-28","ITTFL":"Y","SAFFL":"Y","EFFFL":"N","COMPLFL":"N"},{"STUDYID":"CDISCPILOT01","USUBJID":"01-709-1007","NDOSE":2,"PARAMCD":"AVGDD","AVAL":3.7241,"PARAM":"Average Daily Dose (mg/day)","EXDURGR1":"<=30 days","TRTP":"Xanomeline Low Dose","TRT01P":"Xanomeline Low Dose","TRT01PN":null,"TRT01A":"Xanomeline Low Dose","SITEGR1":900,"SITEID":709,"TRTSDT":"2012-07-31","TRTEDT":"2012-08-28","ITTFL":"Y","SAFFL":"Y","EFFFL":"N","COMPLFL":"N"},{"STUDYID":"CDISCPILOT01","USUBJID":"01-709-1020","NDOSE":3,"PARAMCD":"TRTDUR","AVAL":183,"PARAM":"Duration of Exposure (days)","EXDURGR1":">168 days","TRTP":"Xanomeline Low Dose","TRT01P":"Xanomeline Low Dose","TRT01PN":null,"TRT01A":"Xanomeline Low Dose","SITEGR1":900,"SITEID":709,"TRTSDT":"2012-12-01","TRTEDT":"2013-06-01","ITTFL":"Y","SAFFL":"Y","EFFFL":"N","COMPLFL":"Y"},{"STUDYID":"CDISCPILOT01","USUBJID":"01-709-1020","NDOSE":3,"PARAMCD":"CUMDOSE","AVAL":162,"PARAM":"Cumulative Dose (mg)","EXDURGR1":">168 days","TRTP":"Xanomeline Low Dose","TRT01P":"Xanomeline Low Dose","TRT01PN":null,"TRT01A":"Xanomeline Low Dose","SITEGR1":900,"SITEID":709,"TRTSDT":"2012-12-01","TRTEDT":"2013-06-01","ITTFL":"Y","SAFFL":"Y","EFFFL":"N","COMPLFL":"Y"},{"STUDYID":"CDISCPILOT01","USUBJID":"01-709-1020","NDOSE":3,"PARAMCD":"AVGDD","AVAL":0.8852,"PARAM":"Average Daily Dose (mg/day)","EXDURGR1":">168 days","TRTP":"Xanomeline Low Dose","TRT01P":"Xanomeline Low Dose","TRT01PN":null,"TRT01A":"Xanomeline Low Dose","SITEGR1":900,"SITEID":709,"TRTSDT":"2012-12-01","TRTEDT":"2013-06-01","ITTFL":"Y","SAFFL":"Y","EFFFL":"N","COMPLFL":"Y"},{"STUDYID":"CDISCPILOT01","USUBJID":"01-709-1029","NDOSE":3,"PARAMCD":"TRTDUR","AVAL":184,"PARAM":"Duration of Exposure (days)","EXDURGR1":">168 days","TRTP":"Xanomeline High Dose","TRT01P":"Xanomeline High Dose","TRT01PN":null,"TRT01A":"Xanomeline High Dose","SITEGR1":900,"SITEID":709,"TRTSDT":"2012-12-25","TRTEDT":"2013-06-26","ITTFL":"Y","SAFFL":"Y","EFFFL":"N","COMPLFL":"Y"},{"STUDYID":"CDISCPILOT01","USUBJID":"01-709-1029","NDOSE":3,"PARAMCD":"CUMDOSE","AVAL":189,"PARAM":"Cumulative Dose (mg)","EXDURGR1":">168 days","TRTP":"Xanomeline High Dose","TRT01P":"Xanomeline High Dose","TRT01PN":null,"TRT01A":"Xanomeline High Dose","SITEGR1":900,"SITEID":709,"TRTSDT":"2012-12-25","TRTEDT":"2013-06-26","ITTFL":"Y","SAFFL":"Y","EFFFL":"N","COMPLFL":"Y"},{"STUDYID":"CDISCPILOT01","USUBJID":"01-709-1029","NDOSE":3,"PARAMCD":"AVGDD","AVAL":1.0272,"PARAM":"Average Daily Dose (mg/day)","EXDURGR1":">168 days","TRTP":"Xanomeline High Dose","TRT01P":"Xanomeline High Dose","TRT01PN":null,"TRT01A":"Xanomeline High Dose","SITEGR1":900,"SITEID":709,"TRTSDT":"2012-12-25","TRTEDT":"2013-06-26","ITTFL":"Y","SAFFL":"Y","EFFFL":"N","COMPLFL":"Y"},{"STUDYID":"CDISCPILOT01","USUBJID":"01-709-1081","NDOSE":2,"PARAMCD":"TRTDUR","AVAL":100,"PARAM":"Duration of Exposure (days)","EXDURGR1":"91-168 days","TRTP":"Xanomeline Low Dose","TRT01P":"Xanomeline Low Dose","TRT01PN":null,"TRT01A":"Xanomeline Low Dose","SITEGR1":900,"SITEID":709,"TRTSDT":"2014-01-18","TRTEDT":"2014-04-27","ITTFL":"Y","SAFFL":"Y","EFFFL":"N","COMPLFL":"N"},{"STUDYID":"CDISCPILOT01","USUBJID":"01-709-1081","NDOSE":2,"PARAMCD":"CUMDOSE","AVAL":108,"PARAM":"Cumulative Dose (mg)","EXDURGR1":"91-168 days","TRTP":"Xanomeline Low Dose","TRT01P":"Xanomeline Low Dose","TRT01PN":null,"TRT01A":"Xanomeline Low Dose","SITEGR1":900,"SITEID":709,"TRTSDT":"2014-01-18","TRTEDT":"2014-04-27","ITTFL":"Y","SAFFL":"Y","EFFFL":"N","COMPLFL":"N"},{"STUDYID":"CDISCPILOT01","USUBJID":"01-709-1081","NDOSE":2,"PARAMCD":"AVGDD","AVAL":1.08,"PARAM":"Average Daily Dose (mg/day)","EXDURGR1":"91-168 days","TRTP":"Xanomeline Low Dose","TRT01P":"Xanomeline Low Dose","TRT01PN":null,"TRT01A":"Xanomeline Low Dose","SITEGR1":900,"SITEID":709,"TRTSDT":"2014-01-18","TRTEDT":"2014-04-27","ITTFL":"Y","SAFFL":"Y","EFFFL":"N","COMPLFL":"N"},{"STUDYID":"CDISCPILOT01","USUBJID":"01-709-1088","NDOSE":3,"PARAMCD":"TRTDUR","AVAL":181,"PARAM":"Duration of Exposure (days)","EXDURGR1":">168 days","TRTP":"Placebo","TRT01P":"Placebo","TRT01PN":null,"TRT01A":"Placebo","SITEGR1":900,"SITEID":709,"TRTSDT":"2014-04-12","TRTEDT":"2014-10-09","ITTFL":"Y","SAFFL":"Y","EFFFL":"N","COMPLFL":"Y"},{"STUDYID":"CDISCPILOT01","USUBJID":"01-709-1088","NDOSE":3,"PARAMCD":"CUMDOSE","AVAL":0,"PARAM":"Cumulative Dose (mg)","EXDURGR1":">168 days","TRTP":"Placebo","TRT01P":"Placebo","TRT01PN":null,"TRT01A":"Placebo","SITEGR1":900,"SITEID":709,"TRTSDT":"2014-04-12","TRTEDT":"2014-10-09","ITTFL":"Y","SAFFL":"Y","EFFFL":"N","COMPLFL":"Y"},{"STUDYID":"CDISCPILOT01","USUBJID":"01-709-1088","NDOSE":3,"PARAMCD":"AVGDD","AVAL":0,"PARAM":"Average Daily Dose (mg/day)","EXDURGR1":">168 days","TRTP":"Placebo","TRT01P":"Placebo","TRT01PN":null,"TRT01A":"Placebo","SITEGR1":900,"SITEID":709,"TRTSDT":"2014-04-12","TRTEDT":"2014-10-09","ITTFL":"Y","SAFFL":"Y","EFFFL":"N","COMPLFL":"Y"},{"STUDYID":"CDISCPILOT01","USUBJID":"01-709-1099","NDOSE":3,"PARAMCD":"TRTDUR","AVAL":183,"PARAM":"Duration of Exposure (days)","EXDURGR1":">168 days","TRTP":"Xanomeline High Dose","TRT01P":"Xanomeline High Dose","TRT01PN":null,"TRT01A":"Xanomeline High Dose","SITEGR1":900,"SITEID":709,"TRTSDT":"2013-10-25","TRTEDT":"2014-04-25","ITTFL":"Y","SAFFL":"Y","EFFFL":"N","COMPLFL":"Y"},{"STUDYID":"CDISCPILOT01","USUBJID":"01-709-1099","NDOSE":3,"PARAMCD":"CUMDOSE","AVAL":189,"PARAM":"Cumulative Dose (mg)","EXDURGR1":">168 days","TRTP":"Xanomeline High Dose","TRT01P":"Xanomeline High Dose","TRT01PN":null,"TRT01A":"Xanomeline High Dose","SITEGR1":900,"SITEID":709,"TRTSDT":"2013-10-25","TRTEDT":"2014-04-25","ITTFL":"Y","SAFFL":"Y","EFFFL":"N","COMPLFL":"Y"},{"STUDYID":"CDISCPILOT01","USUBJID":"01-709-1099","NDOSE":3,"PARAMCD":"AVGDD","AVAL":1.0328,"PARAM":"Average Daily Dose (mg/day)","EXDURGR1":">168 days","TRTP":"Xanomeline High Dose","TRT01P":"Xanomeline High Dose","TRT01PN":null,"TRT01A":"Xanomeline High Dose","SITEGR1":900,"SITEID":709,"TRTSDT":"2013-10-25","TRTEDT":"2014-04-25","ITTFL":"Y","SAFFL":"Y","EFFFL":"N","COMPLFL":"Y"},{"STUDYID":"CDISCPILOT01","USUBJID":"01-709-1102","NDOSE":2,"PARAMCD":"TRTDUR","AVAL":72,"PARAM":"Duration of Exposure (days)","EXDURGR1":"31-90 days","TRTP":"Xanomeline Low Dose","TRT01P":"Xanomeline Low Dose","TRT01PN":null,"TRT01A":"Xanomeline Low Dose","SITEGR1":900,"SITEID":709,"TRTSDT":"2013-01-15","TRTEDT":"2013-03-27","ITTFL":"Y","SAFFL":"Y","EFFFL":"N","COMPLFL":"N"},{"STUDYID":"CDISCPILOT01","USUBJID":"01-709-1102","NDOSE":2,"PARAMCD":"CUMDOSE","AVAL":108,"PARAM":"Cumulative Dose (mg)","EXDURGR1":"31-90 days","TRTP":"Xanomeline Low Dose","TRT01P":"Xanomeline Low Dose","TRT01PN":null,"TRT01A":"Xanomeline Low Dose","SITEGR1":900,"SITEID":709,"TRTSDT":"2013-01-15","TRTEDT":"2013-03-27","ITTFL":"Y","SAFFL":"Y","EFFFL":"N","COMPLFL":"N"},{"STUDYID":"CDISCPILOT01","USUBJID":"01-709-1102","NDOSE":2,"PARAMCD":"AVGDD","AVAL":1.5,"PARAM":"Average Daily Dose (mg/day)","EXDURGR1":"31-90 days","TRTP":"Xanomeline Low Dose","TRT01P":"Xanomeline Low Dose","TRT01PN":null,"TRT01A":"Xanomeline Low Dose","SITEGR1":900,"SITEID":709,"TRTSDT":"2013-01-15","TRTEDT":"2013-03-27","ITTFL":"Y","SAFFL":"Y","EFFFL":"N","COMPLFL":"N"},{"STUDYID":"CDISCPILOT01","USUBJID":"01-709-1168","NDOSE":2,"PARAMCD":"TRTDUR","AVAL":56,"PARAM":"Duration of Exposure (days)","EXDURGR1":"31-90 days","TRTP":"Xanomeline High Dose","TRT01P":"Xanomeline High Dose","TRT01PN":null,"TRT01A":"Xanomeline High Dose","SITEGR1":900,"SITEID":709,"TRTSDT":"2013-08-02","TRTEDT":"2013-09-26","ITTFL":"Y","SAFFL":"Y","EFFFL":"N","COMPLFL":"N"},{"STUDYID":"CDISCPILOT01","USUBJID":"01-709-1168","NDOSE":2,"PARAMCD":"CUMDOSE","AVAL":135,"PARAM":"Cumulative Dose (mg)","EXDURGR1":"31-90 days","TRTP":"Xanomeline High Dose","TRT01P":"Xanomeline High Dose","TRT01PN":null,"TRT01A":"Xanomeline High Dose","SITEGR1":900,"SITEID":709,"TRTSDT":"2013-08-02","TRTEDT":"2013-09-26","ITTFL":"Y","SAFFL":"Y","EFFFL":"N","COMPLFL":"N"},{"STUDYID":"CDISCPILOT01","USUBJID":"01-709-1168","NDOSE":2,"PARAMCD":"AVGDD","AVAL":2.4107,"PARAM":"Average Daily Dose (mg/day)","EXDURGR1":"31-90 days","TRTP":"Xanomeline High Dose","TRT01P":"Xanomeline High Dose","TRT01PN":null,"TRT01A":"Xanomeline High Dose","SITEGR1":900,"SITEID":709,"TRTSDT":"2013-08-02","TRTEDT":"2013-09-26","ITTFL":"Y","SAFFL":"Y","EFFFL":"N","COMPLFL":"N"},{"STUDYID":"CDISCPILOT01","USUBJID":"01-709-1217","NDOSE":2,"PARAMCD":"TRTDUR","AVAL":100,"PARAM":"Duration of Exposure (days)","EXDURGR1":"91-168 days","TRTP":"Xanomeline Low Dose","TRT01P":"Xanomeline Low Dose","TRT01PN":null,"TRT01A":"Xanomeline Low Dose","SITEGR1":900,"SITEID":709,"TRTSDT":"2013-03-04","TRTEDT":"2013-06-11","ITTFL":"Y","SAFFL":"Y","EFFFL":"N","COMPLFL":"N"},{"STUDYID":"CDISCPILOT01","USUBJID":"01-709-1217","NDOSE":2,"PARAMCD":"CUMDOSE","AVAL":108,"PARAM":"Cumulative Dose (mg)","EXDURGR1":"91-168 days","TRTP":"Xanomeline Low Dose","TRT01P":"Xanomeline Low Dose","TRT01PN":null,"TRT01A":"Xanomeline Low Dose","SITEGR1":900,"SITEID":709,"TRTSDT":"2013-03-04","TRTEDT":"2013-06-11","ITTFL":"Y","SAFFL":"Y","EFFFL":"N","COMPLFL":"N"},{"STUDYID":"CDISCPILOT01","USUBJID":"01-709-1217","NDOSE":2,"PARAMCD":"AVGDD","AVAL":1.08,"PARAM":"Average Daily Dose (mg/day)","EXDURGR1":"91-168 days","TRTP":"Xanomeline Low Dose","TRT01P":"Xanomeline Low Dose","TRT01PN":null,"TRT01A":"Xanomeline Low Dose","SITEGR1":900,"SITEID":709,"TRTSDT":"2013-03-04","TRTEDT":"2013-06-11","ITTFL":"Y","SAFFL":"Y","EFFFL":"N","COMPLFL":"N"},{"STUDYID":"CDISCPILOT01","USUBJID":"01-709-1238","NDOSE":2,"PARAMCD":"TRTDUR","AVAL":84,"PARAM":"Duration of Exposure (days)","EXDURGR1":"31-90 days","TRTP":"Xanomeline High Dose","TRT01P":"Xanomeline High Dose","TRT01PN":null,"TRT01A":"Xanomeline High Dose","SITEGR1":900,"SITEID":709,"TRTSDT":"2013-05-15","TRTEDT":"2013-08-06","ITTFL":"Y","SAFFL":"Y","EFFFL":"N","COMPLFL":"N"},{"STUDYID":"CDISCPILOT01","USUBJID":"01-709-1238","NDOSE":2,"PARAMCD":"CUMDOSE","AVAL":135,"PARAM":"Cumulative Dose (mg)","EXDURGR1":"31-90 days","TRTP":"Xanomeline High Dose","TRT01P":"Xanomeline High Dose","TRT01PN":null,"TRT01A":"Xanomeline High Dose","SITEGR1":900,"SITEID":709,"TRTSDT":"2013-05-15","TRTEDT":"2013-08-06","ITTFL":"Y","SAFFL":"Y","EFFFL":"N","COMPLFL":"N"},{"STUDYID":"CDISCPILOT01","USUBJID":"01-709-1238","NDOSE":2,"PARAMCD":"AVGDD","AVAL":1.6071,"PARAM":"Average Daily Dose (mg/day)","EXDURGR1":"31-90 days","TRTP":"Xanomeline High Dose","TRT01P":"Xanomeline High Dose","TRT01PN":null,"TRT01A":"Xanomeline High Dose","SITEGR1":900,"SITEID":709,"TRTSDT":"2013-05-15","TRTEDT":"2013-08-06","ITTFL":"Y","SAFFL":"Y","EFFFL":"N","COMPLFL":"N"},{"STUDYID":"CDISCPILOT01","USUBJID":"01-709-1259","NDOSE":2,"PARAMCD":"TRTDUR","AVAL":139,"PARAM":"Duration of Exposure (days)","EXDURGR1":"91-168 days","TRTP":"Placebo","TRT01P":"Placebo","TRT01PN":null,"TRT01A":"Placebo","SITEGR1":900,"SITEID":709,"TRTSDT":"2013-01-26","TRTEDT":"2013-06-13","ITTFL":"Y","SAFFL":"Y","EFFFL":"N","COMPLFL":"N"},{"STUDYID":"CDISCPILOT01","USUBJID":"01-709-1259","NDOSE":2,"PARAMCD":"CUMDOSE","AVAL":0,"PARAM":"Cumulative Dose (mg)","EXDURGR1":"91-168 days","TRTP":"Placebo","TRT01P":"Placebo","TRT01PN":null,"TRT01A":"Placebo","SITEGR1":900,"SITEID":709,"TRTSDT":"2013-01-26","TRTEDT":"2013-06-13","ITTFL":"Y","SAFFL":"Y","EFFFL":"N","COMPLFL":"N"},{"STUDYID":"CDISCPILOT01","USUBJID":"01-709-1259","NDOSE":2,"PARAMCD":"AVGDD","AVAL":0,"PARAM":"Average Daily Dose (mg/day)","EXDURGR1":"91-168 days","TRTP":"Placebo","TRT01P":"Placebo","TRT01PN":null,"TRT01A":"Placebo","SITEGR1":900,"SITEID":709,"TRTSDT":"2013-01-26","TRTEDT":"2013-06-13","ITTFL":"Y","SAFFL":"Y","EFFFL":"N","COMPLFL":"N"},{"STUDYID":"CDISCPILOT01","USUBJID":"01-709-1285","NDOSE":2,"PARAMCD":"TRTDUR","AVAL":61,"PARAM":"Duration of Exposure (days)","EXDURGR1":"31-90 days","TRTP":"Xanomeline Low Dose","TRT01P":"Xanomeline Low Dose","TRT01PN":null,"TRT01A":"Xanomeline Low Dose","SITEGR1":900,"SITEID":709,"TRTSDT":"2013-03-24","TRTEDT":"2013-05-23","ITTFL":"Y","SAFFL":"Y","EFFFL":"N","COMPLFL":"N"},{"STUDYID":"CDISCPILOT01","USUBJID":"01-709-1285","NDOSE":2,"PARAMCD":"CUMDOSE","AVAL":108,"PARAM":"Cumulative Dose (mg)","EXDURGR1":"31-90 days","TRTP":"Xanomeline Low Dose","TRT01P":"Xanomeline Low Dose","TRT01PN":null,"TRT01A":"Xanomeline Low Dose","SITEGR1":900,"SITEID":709,"TRTSDT":"2013-03-24","TRTEDT":"2013-05-23","ITTFL":"Y","SAFFL":"Y","EFFFL":"N","COMPLFL":"N"},{"STUDYID":"CDISCPILOT01","USUBJID":"01-709-1285","NDOSE":2,"PARAMCD":"AVGDD","AVAL":1.7705,"PARAM":"Average Daily Dose (mg/day)","EXDURGR1":"31-90 days","TRTP":"Xanomeline Low Dose","TRT01P":"Xanomeline Low Dose","TRT01PN":null,"TRT01A":"Xanomeline Low Dose","SITEGR1":900,"SITEID":709,"TRTSDT":"2013-03-24","TRTEDT":"2013-05-23","ITTFL":"Y","SAFFL":"Y","EFFFL":"N","COMPLFL":"N"},{"STUDYID":"CDISCPILOT01","USUBJID":"01-709-1301","NDOSE":3,"PARAMCD":"TRTDUR","AVAL":183,"PARAM":"Duration of Exposure (days)","EXDURGR1":">168 days","TRTP":"Placebo","TRT01P":"Placebo","TRT01PN":null,"TRT01A":"Placebo","SITEGR1":900,"SITEID":709,"TRTSDT":"2013-07-19","TRTEDT":"2014-01-17","ITTFL":"Y","SAFFL":"Y","EFFFL":"N","COMPLFL":"Y"},{"STUDYID":"CDISCPILOT01","USUBJID":"01-709-1301","NDOSE":3,"PARAMCD":"CUMDOSE","AVAL":0,"PARAM":"Cumulative Dose (mg)","EXDURGR1":">168 days","TRTP":"Placebo","TRT01P":"Placebo","TRT01PN":null,"TRT01A":"Placebo","SITEGR1":900,"SITEID":709,"TRTSDT":"2013-07-19","TRTEDT":"2014-01-17","ITTFL":"Y","SAFFL":"Y","EFFFL":"N","COMPLFL":"Y"},{"STUDYID":"CDISCPILOT01","USUBJID":"01-709-1301","NDOSE":3,"PARAMCD":"AVGDD","AVAL":0,"PARAM":"Average Daily Dose (mg/day)","EXDURGR1":">168 days","TRTP":"Placebo","TRT01P":"Placebo","TRT01PN":null,"TRT01A":"Placebo","SITEGR1":900,"SITEID":709,"TRTSDT":"2013-07-19","TRTEDT":"2014-01-17","ITTFL":"Y","SAFFL":"Y","EFFFL":"N","COMPLFL":"Y"},{"STUDYID":"CDISCPILOT01","USUBJID":"01-709-1306","NDOSE":2,"PARAMCD":"TRTDUR","AVAL":134,"PARAM":"Duration of Exposure (days)","EXDURGR1":"91-168 days","TRTP":"Placebo","TRT01P":"Placebo","TRT01PN":null,"TRT01A":"Placebo","SITEGR1":900,"SITEID":709,"TRTSDT":"2014-02-03","TRTEDT":"2014-06-16","ITTFL":"Y","SAFFL":"Y","EFFFL":"N","COMPLFL":"N"},{"STUDYID":"CDISCPILOT01","USUBJID":"01-709-1306","NDOSE":2,"PARAMCD":"CUMDOSE","AVAL":0,"PARAM":"Cumulative Dose (mg)","EXDURGR1":"91-168 days","TRTP":"Placebo","TRT01P":"Placebo","TRT01PN":null,"TRT01A":"Placebo","SITEGR1":900,"SITEID":709,"TRTSDT":"2014-02-03","TRTEDT":"2014-06-16","ITTFL":"Y","SAFFL":"Y","EFFFL":"N","COMPLFL":"N"},{"STUDYID":"CDISCPILOT01","USUBJID":"01-709-1306","NDOSE":2,"PARAMCD":"AVGDD","AVAL":0,"PARAM":"Average Daily Dose (mg/day)","EXDURGR1":"91-168 days","TRTP":"Placebo","TRT01P":"Placebo","TRT01PN":null,"TRT01A":"Placebo","SITEGR1":900,"SITEID":709,"TRTSDT":"2014-02-03","TRTEDT":"2014-06-16","ITTFL":"Y","SAFFL":"Y","EFFFL":"N","COMPLFL":"N"},{"STUDYID":"CDISCPILOT01","USUBJID":"01-709-1309","NDOSE":3,"PARAMCD":"TRTDUR","AVAL":184,"PARAM":"Duration of Exposure (days)","EXDURGR1":">168 days","TRTP":"Xanomeline High Dose","TRT01P":"Xanomeline High Dose","TRT01PN":null,"TRT01A":"Xanomeline High Dose","SITEGR1":900,"SITEID":709,"TRTSDT":"2013-06-19","TRTEDT":"2013-12-19","ITTFL":"Y","SAFFL":"Y","EFFFL":"N","COMPLFL":"Y"},{"STUDYID":"CDISCPILOT01","USUBJID":"01-709-1309","NDOSE":3,"PARAMCD":"CUMDOSE","AVAL":189,"PARAM":"Cumulative Dose (mg)","EXDURGR1":">168 days","TRTP":"Xanomeline High Dose","TRT01P":"Xanomeline High Dose","TRT01PN":null,"TRT01A":"Xanomeline High Dose","SITEGR1":900,"SITEID":709,"TRTSDT":"2013-06-19","TRTEDT":"2013-12-19","ITTFL":"Y","SAFFL":"Y","EFFFL":"N","COMPLFL":"Y"},{"STUDYID":"CDISCPILOT01","USUBJID":"01-709-1309","NDOSE":3,"PARAMCD":"AVGDD","AVAL":1.0272,"PARAM":"Average Daily Dose (mg/day)","EXDURGR1":">168 days","TRTP":"Xanomeline High Dose","TRT01P":"Xanomeline High Dose","TRT01PN":null,"TRT01A":"Xanomeline High Dose","SITEGR1":900,"SITEID":709,"TRTSDT":"2013-06-19","TRTEDT":"2013-12-19","ITTFL":"Y","SAFFL":"Y","EFFFL":"N","COMPLFL":"Y"},{"STUDYID":"CDISCPILOT01","USUBJID":"01-709-1312","NDOSE":3,"PARAMCD":"TRTDUR","AVAL":183,"PARAM":"Duration of Exposure (days)","EXDURGR1":">168 days","TRTP":"Placebo","TRT01P":"Placebo","TRT01PN":null,"TRT01A":"Placebo","SITEGR1":900,"SITEID":709,"TRTSDT":"2014-04-20","TRTEDT":"2014-10-19","ITTFL":"Y","SAFFL":"Y","EFFFL":"N","COMPLFL":"Y"},{"STUDYID":"CDISCPILOT01","USUBJID":"01-709-1312","NDOSE":3,"PARAMCD":"CUMDOSE","AVAL":0,"PARAM":"Cumulative Dose (mg)","EXDURGR1":">168 days","TRTP":"Placebo","TRT01P":"Placebo","TRT01PN":null,"TRT01A":"Placebo","SITEGR1":900,"SITEID":709,"TRTSDT":"2014-04-20","TRTEDT":"2014-10-19","ITTFL":"Y","SAFFL":"Y","EFFFL":"N","COMPLFL":"Y"},{"STUDYID":"CDISCPILOT01","USUBJID":"01-709-1312","NDOSE":3,"PARAMCD":"AVGDD","AVAL":0,"PARAM":"Average Daily Dose (mg/day)","EXDURGR1":">168 days","TRTP":"Placebo","TRT01P":"Placebo","TRT01PN":null,"TRT01A":"Placebo","SITEGR1":900,"SITEID":709,"TRTSDT":"2014-04-20","TRTEDT":"2014-10-19","ITTFL":"Y","SAFFL":"Y","EFFFL":"N","COMPLFL":"Y"},{"STUDYID":"CDISCPILOT01","USUBJID":"01-709-1326","NDOSE":3,"PARAMCD":"TRTDUR","AVAL":181,"PARAM":"Duration of Exposure (days)","EXDURGR1":">168 days","TRTP":"Xanomeline Low Dose","TRT01P":"Xanomeline Low Dose","TRT01PN":null,"TRT01A":"Xanomeline Low Dose","SITEGR1":900,"SITEID":709,"TRTSDT":"2013-04-05","TRTEDT":"2013-10-02","ITTFL":"Y","SAFFL":"Y","EFFFL":"N","COMPLFL":"Y"},{"STUDYID":"CDISCPILOT01","USUBJID":"01-709-1326","NDOSE":3,"PARAMCD":"CUMDOSE","AVAL":162,"PARAM":"Cumulative Dose (mg)","EXDURGR1":">168 days","TRTP":"Xanomeline Low Dose","TRT01P":"Xanomeline Low Dose","TRT01PN":null,"TRT01A":"Xanomeline Low Dose","SITEGR1":900,"SITEID":709,"TRTSDT":"2013-04-05","TRTEDT":"2013-10-02","ITTFL":"Y","SAFFL":"Y","EFFFL":"N","COMPLFL":"Y"},{"STUDYID":"CDISCPILOT01","USUBJID":"01-709-1326","NDOSE":3,"PARAMCD":"AVGDD","AVAL":0.895,"PARAM":"Average Daily Dose (mg/day)","EXDURGR1":">168 days","TRTP":"Xanomeline Low Dose","TRT01P":"Xanomeline Low Dose","TRT01PN":null,"TRT01A":"Xanomeline Low Dose","SITEGR1":900,"SITEID":709,"TRTSDT":"2013-04-05","TRTEDT":"2013-10-02","ITTFL":"Y","SAFFL":"Y","EFFFL":"N","COMPLFL":"Y"},{"STUDYID":"CDISCPILOT01","USUBJID":"01-709-1329","NDOSE":1,"PARAMCD":"TRTDUR","AVAL":11,"PARAM":"Duration of Exposure (days)","EXDURGR1":"<=30 days","TRTP":"Xanomeline High Dose","TRT01P":"Xanomeline High Dose","TRT01PN":null,"TRT01A":"Xanomeline Low Dose","SITEGR1":900,"SITEID":709,"TRTSDT":"2013-08-15","TRTEDT":"2013-08-25","ITTFL":"Y","SAFFL":"Y","EFFFL":"N","COMPLFL":"N"},{"STUDYID":"CDISCPILOT01","USUBJID":"01-709-1329","NDOSE":1,"PARAMCD":"CUMDOSE","AVAL":54,"PARAM":"Cumulative Dose (mg)","EXDURGR1":"<=30 days","TRTP":"Xanomeline High Dose","TRT01P":"Xanomeline High Dose","TRT01PN":null,"TRT01A":"Xanomeline Low Dose","SITEGR1":900,"SITEID":709,"TRTSDT":"2013-08-15","TRTEDT":"2013-08-25","ITTFL":"Y","SAFFL":"Y","EFFFL":"N","COMPLFL":"N"},{"STUDYID":"CDISCPILOT01","USUBJID":"01-709-1329","NDOSE":1,"PARAMCD":"AVGDD","AVAL":4.9091,"PARAM":"Average Daily Dose (mg/day)","EXDURGR1":"<=30 days","TRTP":"Xanomeline High Dose","TRT01P":"Xanomeline High Dose","TRT01PN":null,"TRT01A":"Xanomeline Low Dose","SITEGR1":900,"SITEID":709,"TRTSDT":"2013-08-15","TRTEDT":"2013-08-25","ITTFL":"Y","SAFFL":"Y","EFFFL":"N","COMPLFL":"N"},{"STUDYID":"CDISCPILOT01","USUBJID":"01-709-1339","NDOSE":3,"PARAMCD":"TRTDUR","AVAL":184,"PARAM":"Duration of Exposure (days)","EXDURGR1":">168 days","TRTP":"Placebo","TRT01P":"Placebo","TRT01PN":null,"TRT01A":"Placebo","SITEGR1":900,"SITEID":709,"TRTSDT":"2012-12-23","TRTEDT":"2013-06-24","ITTFL":"Y","SAFFL":"Y","EFFFL":"N","COMPLFL":"Y"},{"STUDYID":"CDISCPILOT01","USUBJID":"01-709-1339","NDOSE":3,"PARAMCD":"CUMDOSE","AVAL":0,"PARAM":"Cumulative Dose (mg)","EXDURGR1":">168 days","TRTP":"Placebo","TRT01P":"Placebo","TRT01PN":null,"TRT01A":"Placebo","SITEGR1":900,"SITEID":709,"TRTSDT":"2012-12-23","TRTEDT":"2013-06-24","ITTFL":"Y","SAFFL":"Y","EFFFL":"N","COMPLFL":"Y"},{"STUDYID":"CDISCPILOT01","USUBJID":"01-709-1339","NDOSE":3,"PARAMCD":"AVGDD","AVAL":0,"PARAM":"Average Daily Dose (mg/day)","EXDURGR1":">168 days","TRTP":"Placebo","TRT01P":"Placebo","TRT01PN":null,"TRT01A":"Placebo","SITEGR1":900,"SITEID":709,"TRTSDT":"2012-12-23","TRTEDT":"2013-06-24","ITTFL":"Y","SAFFL":"Y","EFFFL":"N","COMPLFL":"Y"},{"STUDYID":"CDISCPILOT01","USUBJID":"01-709-1424","NDOSE":1,"PARAMCD":"TRTDUR","AVAL":5,"PARAM":"Duration of Exposure (days)","EXDURGR1":"<=30 days","TRTP":"Xanomeline High Dose","TRT01P":"Xanomeline High Dose","TRT01PN":null,"TRT01A":"Xanomeline Low Dose","SITEGR1":900,"SITEID":709,"TRTSDT":"2013-03-03","TRTEDT":"2013-03-07","ITTFL":"Y","SAFFL":"Y","EFFFL":"N","COMPLFL":"N"},{"STUDYID":"CDISCPILOT01","USUBJID":"01-709-1424","NDOSE":1,"PARAMCD":"CUMDOSE","AVAL":54,"PARAM":"Cumulative Dose (mg)","EXDURGR1":"<=30 days","TRTP":"Xanomeline High Dose","TRT01P":"Xanomeline High Dose","TRT01PN":null,"TRT01A":"Xanomeline Low Dose","SITEGR1":900,"SITEID":709,"TRTSDT":"2013-03-03","TRTEDT":"2013-03-07","ITTFL":"Y","SAFFL":"Y","EFFFL":"N","COMPLFL":"N"},{"STUDYID":"CDISCPILOT01","USUBJID":"01-709-1424","NDOSE":1,"PARAMCD":"AVGDD","AVAL":10.8,"PARAM":"Average Daily Dose (mg/day)","EXDURGR1":"<=30 days","TRTP":"Xanomeline High Dose","TRT01P":"Xanomeline High Dose","TRT01PN":null,"TRT01A":"Xanomeline Low Dose","SITEGR1":900,"SITEID":709,"TRTSDT":"2013-03-03","TRTEDT":"2013-03-07","ITTFL":"Y","SAFFL":"Y","EFFFL":"N","COMPLFL":"N"},{"STUDYID":"CDISCPILOT01","USUBJID":"01-710-1002","NDOSE":1,"PARAMCD":"TRTDUR","AVAL":5,"PARAM":"Duration of Exposure (days)","EXDURGR1":"<=30 days","TRTP":"Xanomeline Low Dose","TRT01P":"Xanomeline Low Dose","TRT01PN":null,"TRT01A":"Xanomeline Low Dose","SITEGR1":900,"SITEID":710,"TRTSDT":"2014-01-14","TRTEDT":"2014-01-18","ITTFL":"Y","SAFFL":"Y","EFFFL":"N","COMPLFL":"N"},{"STUDYID":"CDISCPILOT01","USUBJID":"01-710-1002","NDOSE":1,"PARAMCD":"CUMDOSE","AVAL":54,"PARAM":"Cumulative Dose (mg)","EXDURGR1":"<=30 days","TRTP":"Xanomeline Low Dose","TRT01P":"Xanomeline Low Dose","TRT01PN":null,"TRT01A":"Xanomeline Low Dose","SITEGR1":900,"SITEID":710,"TRTSDT":"2014-01-14","TRTEDT":"2014-01-18","ITTFL":"Y","SAFFL":"Y","EFFFL":"N","COMPLFL":"N"},{"STUDYID":"CDISCPILOT01","USUBJID":"01-710-1002","NDOSE":1,"PARAMCD":"AVGDD","AVAL":10.8,"PARAM":"Average Daily Dose (mg/day)","EXDURGR1":"<=30 days","TRTP":"Xanomeline Low Dose","TRT01P":"Xanomeline Low Dose","TRT01PN":null,"TRT01A":"Xanomeline Low Dose","SITEGR1":900,"SITEID":710,"TRTSDT":"2014-01-14","TRTEDT":"2014-01-18","ITTFL":"Y","SAFFL":"Y","EFFFL":"N","COMPLFL":"N"},{"STUDYID":"CDISCPILOT01","USUBJID":"01-710-1006","NDOSE":3,"PARAMCD":"TRTDUR","AVAL":181,"PARAM":"Duration of Exposure (days)","EXDURGR1":">168 days","TRTP":"Xanomeline High Dose","TRT01P":"Xanomeline High Dose","TRT01PN":null,"TRT01A":"Xanomeline High Dose","SITEGR1":900,"SITEID":710,"TRTSDT":"2013-02-10","TRTEDT":"2013-08-09","ITTFL":"Y","SAFFL":"Y","EFFFL":"N","COMPLFL":"Y"},{"STUDYID":"CDISCPILOT01","USUBJID":"01-710-1006","NDOSE":3,"PARAMCD":"CUMDOSE","AVAL":189,"PARAM":"Cumulative Dose (mg)","EXDURGR1":">168 days","TRTP":"Xanomeline High Dose","TRT01P":"Xanomeline High Dose","TRT01PN":null,"TRT01A":"Xanomeline High Dose","SITEGR1":900,"SITEID":710,"TRTSDT":"2013-02-10","TRTEDT":"2013-08-09","ITTFL":"Y","SAFFL":"Y","EFFFL":"N","COMPLFL":"Y"},{"STUDYID":"CDISCPILOT01","USUBJID":"01-710-1006","NDOSE":3,"PARAMCD":"AVGDD","AVAL":1.0442,"PARAM":"Average Daily Dose (mg/day)","EXDURGR1":">168 days","TRTP":"Xanomeline High Dose","TRT01P":"Xanomeline High Dose","TRT01PN":null,"TRT01A":"Xanomeline High Dose","SITEGR1":900,"SITEID":710,"TRTSDT":"2013-02-10","TRTEDT":"2013-08-09","ITTFL":"Y","SAFFL":"Y","EFFFL":"N","COMPLFL":"Y"},{"STUDYID":"CDISCPILOT01","USUBJID":"01-710-1021","NDOSE":2,"PARAMCD":"TRTDUR","AVAL":33,"PARAM":"Duration of Exposure (days)","EXDURGR1":"31-90 days","TRTP":"Xanomeline High Dose","TRT01P":"Xanomeline High Dose","TRT01PN":null,"TRT01A":"Xanomeline High Dose","SITEGR1":900,"SITEID":710,"TRTSDT":"2013-09-27","TRTEDT":"2013-10-29","ITTFL":"Y","SAFFL":"Y","EFFFL":"N","COMPLFL":"N"},{"STUDYID":"CDISCPILOT01","USUBJID":"01-710-1021","NDOSE":2,"PARAMCD":"CUMDOSE","AVAL":135,"PARAM":"Cumulative Dose (mg)","EXDURGR1":"31-90 days","TRTP":"Xanomeline High Dose","TRT01P":"Xanomeline High Dose","TRT01PN":null,"TRT01A":"Xanomeline High Dose","SITEGR1":900,"SITEID":710,"TRTSDT":"2013-09-27","TRTEDT":"2013-10-29","ITTFL":"Y","SAFFL":"Y","EFFFL":"N","COMPLFL":"N"},{"STUDYID":"CDISCPILOT01","USUBJID":"01-710-1021","NDOSE":2,"PARAMCD":"AVGDD","AVAL":4.0909,"PARAM":"Average Daily Dose (mg/day)","EXDURGR1":"31-90 days","TRTP":"Xanomeline High Dose","TRT01P":"Xanomeline High Dose","TRT01PN":null,"TRT01A":"Xanomeline High Dose","SITEGR1":900,"SITEID":710,"TRTSDT":"2013-09-27","TRTEDT":"2013-10-29","ITTFL":"Y","SAFFL":"Y","EFFFL":"N","COMPLFL":"N"},{"STUDYID":"CDISCPILOT01","USUBJID":"01-710-1027","NDOSE":3,"PARAMCD":"TRTDUR","AVAL":183,"PARAM":"Duration of Exposure (days)","EXDURGR1":">168 days","TRTP":"Placebo","TRT01P":"Placebo","TRT01PN":null,"TRT01A":"Placebo","SITEGR1":900,"SITEID":710,"TRTSDT":"2014-02-28","TRTEDT":"2014-08-29","ITTFL":"Y","SAFFL":"Y","EFFFL":"N","COMPLFL":"Y"},{"STUDYID":"CDISCPILOT01","USUBJID":"01-710-1027","NDOSE":3,"PARAMCD":"CUMDOSE","AVAL":0,"PARAM":"Cumulative Dose (mg)","EXDURGR1":">168 days","TRTP":"Placebo","TRT01P":"Placebo","TRT01PN":null,"TRT01A":"Placebo","SITEGR1":900,"SITEID":710,"TRTSDT":"2014-02-28","TRTEDT":"2014-08-29","ITTFL":"Y","SAFFL":"Y","EFFFL":"N","COMPLFL":"Y"},{"STUDYID":"CDISCPILOT01","USUBJID":"01-710-1027","NDOSE":3,"PARAMCD":"AVGDD","AVAL":0,"PARAM":"Average Daily Dose (mg/day)","EXDURGR1":">168 days","TRTP":"Placebo","TRT01P":"Placebo","TRT01PN":null,"TRT01A":"Placebo","SITEGR1":900,"SITEID":710,"TRTSDT":"2014-02-28","TRTEDT":"2014-08-29","ITTFL":"Y","SAFFL":"Y","EFFFL":"N","COMPLFL":"Y"},{"STUDYID":"CDISCPILOT01","USUBJID":"01-710-1045","NDOSE":2,"PARAMCD":"TRTDUR","AVAL":72,"PARAM":"Duration of Exposure (days)","EXDURGR1":"31-90 days","TRTP":"Xanomeline Low Dose","TRT01P":"Xanomeline Low Dose","TRT01PN":null,"TRT01A":"Xanomeline Low Dose","SITEGR1":900,"SITEID":710,"TRTSDT":"2013-06-03","TRTEDT":"2013-08-13","ITTFL":"Y","SAFFL":"Y","EFFFL":"N","COMPLFL":"N"},{"STUDYID":"CDISCPILOT01","USUBJID":"01-710-1045","NDOSE":2,"PARAMCD":"CUMDOSE","AVAL":108,"PARAM":"Cumulative Dose (mg)","EXDURGR1":"31-90 days","TRTP":"Xanomeline Low Dose","TRT01P":"Xanomeline Low Dose","TRT01PN":null,"TRT01A":"Xanomeline Low Dose","SITEGR1":900,"SITEID":710,"TRTSDT":"2013-06-03","TRTEDT":"2013-08-13","ITTFL":"Y","SAFFL":"Y","EFFFL":"N","COMPLFL":"N"},{"STUDYID":"CDISCPILOT01","USUBJID":"01-710-1045","NDOSE":2,"PARAMCD":"AVGDD","AVAL":1.5,"PARAM":"Average Daily Dose (mg/day)","EXDURGR1":"31-90 days","TRTP":"Xanomeline Low Dose","TRT01P":"Xanomeline Low Dose","TRT01PN":null,"TRT01A":"Xanomeline Low Dose","SITEGR1":900,"SITEID":710,"TRTSDT":"2013-06-03","TRTEDT":"2013-08-13","ITTFL":"Y","SAFFL":"Y","EFFFL":"N","COMPLFL":"N"},{"STUDYID":"CDISCPILOT01","USUBJID":"01-710-1053","NDOSE":2,"PARAMCD":"TRTDUR","AVAL":47,"PARAM":"Duration of Exposure (days)","EXDURGR1":"31-90 days","TRTP":"Xanomeline Low Dose","TRT01P":"Xanomeline Low Dose","TRT01PN":null,"TRT01A":"Xanomeline Low Dose","SITEGR1":900,"SITEID":710,"TRTSDT":"2012-12-26","TRTEDT":"2013-02-10","ITTFL":"Y","SAFFL":"Y","EFFFL":"N","COMPLFL":"N"},{"STUDYID":"CDISCPILOT01","USUBJID":"01-710-1053","NDOSE":2,"PARAMCD":"CUMDOSE","AVAL":108,"PARAM":"Cumulative Dose (mg)","EXDURGR1":"31-90 days","TRTP":"Xanomeline Low Dose","TRT01P":"Xanomeline Low Dose","TRT01PN":null,"TRT01A":"Xanomeline Low Dose","SITEGR1":900,"SITEID":710,"TRTSDT":"2012-12-26","TRTEDT":"2013-02-10","ITTFL":"Y","SAFFL":"Y","EFFFL":"N","COMPLFL":"N"},{"STUDYID":"CDISCPILOT01","USUBJID":"01-710-1053","NDOSE":2,"PARAMCD":"AVGDD","AVAL":2.2979,"PARAM":"Average Daily Dose (mg/day)","EXDURGR1":"31-90 days","TRTP":"Xanomeline Low Dose","TRT01P":"Xanomeline Low Dose","TRT01PN":null,"TRT01A":"Xanomeline Low Dose","SITEGR1":900,"SITEID":710,"TRTSDT":"2012-12-26","TRTEDT":"2013-02-10","ITTFL":"Y","SAFFL":"Y","EFFFL":"N","COMPLFL":"N"},{"STUDYID":"CDISCPILOT01","USUBJID":"01-710-1060","NDOSE":3,"PARAMCD":"TRTDUR","AVAL":186,"PARAM":"Duration of Exposure (days)","EXDURGR1":">168 days","TRTP":"Placebo","TRT01P":"Placebo","TRT01PN":null,"TRT01A":"Placebo","SITEGR1":900,"SITEID":710,"TRTSDT":"2013-01-01","TRTEDT":"2013-07-05","ITTFL":"Y","SAFFL":"Y","EFFFL":"N","COMPLFL":"Y"},{"STUDYID":"CDISCPILOT01","USUBJID":"01-710-1060","NDOSE":3,"PARAMCD":"CUMDOSE","AVAL":0,"PARAM":"Cumulative Dose (mg)","EXDURGR1":">168 days","TRTP":"Placebo","TRT01P":"Placebo","TRT01PN":null,"TRT01A":"Placebo","SITEGR1":900,"SITEID":710,"TRTSDT":"2013-01-01","TRTEDT":"2013-07-05","ITTFL":"Y","SAFFL":"Y","EFFFL":"N","COMPLFL":"Y"},{"STUDYID":"CDISCPILOT01","USUBJID":"01-710-1060","NDOSE":3,"PARAMCD":"AVGDD","AVAL":0,"PARAM":"Average Daily Dose (mg/day)","EXDURGR1":">168 days","TRTP":"Placebo","TRT01P":"Placebo","TRT01PN":null,"TRT01A":"Placebo","SITEGR1":900,"SITEID":710,"TRTSDT":"2013-01-01","TRTEDT":"2013-07-05","ITTFL":"Y","SAFFL":"Y","EFFFL":"N","COMPLFL":"Y"},{"STUDYID":"CDISCPILOT01","USUBJID":"01-710-1070","NDOSE":2,"PARAMCD":"TRTDUR","AVAL":137,"PARAM":"Duration of Exposure (days)","EXDURGR1":"91-168 days","TRTP":"Xanomeline High Dose","TRT01P":"Xanomeline High Dose","TRT01PN":null,"TRT01A":"Xanomeline High Dose","SITEGR1":900,"SITEID":710,"TRTSDT":"2012-09-08","TRTEDT":"2013-01-22","ITTFL":"Y","SAFFL":"Y","EFFFL":"N","COMPLFL":"N"},{"STUDYID":"CDISCPILOT01","USUBJID":"01-710-1070","NDOSE":2,"PARAMCD":"CUMDOSE","AVAL":135,"PARAM":"Cumulative Dose (mg)","EXDURGR1":"91-168 days","TRTP":"Xanomeline High Dose","TRT01P":"Xanomeline High Dose","TRT01PN":null,"TRT01A":"Xanomeline High Dose","SITEGR1":900,"SITEID":710,"TRTSDT":"2012-09-08","TRTEDT":"2013-01-22","ITTFL":"Y","SAFFL":"Y","EFFFL":"N","COMPLFL":"N"},{"STUDYID":"CDISCPILOT01","USUBJID":"01-710-1070","NDOSE":2,"PARAMCD":"AVGDD","AVAL":0.9854,"PARAM":"Average Daily Dose (mg/day)","EXDURGR1":"91-168 days","TRTP":"Xanomeline High Dose","TRT01P":"Xanomeline High Dose","TRT01PN":null,"TRT01A":"Xanomeline High Dose","SITEGR1":900,"SITEID":710,"TRTSDT":"2012-09-08","TRTEDT":"2013-01-22","ITTFL":"Y","SAFFL":"Y","EFFFL":"N","COMPLFL":"N"},{"STUDYID":"CDISCPILOT01","USUBJID":"01-710-1077","NDOSE":3,"PARAMCD":"TRTDUR","AVAL":183,"PARAM":"Duration of Exposure (days)","EXDURGR1":">168 days","TRTP":"Placebo","TRT01P":"Placebo","TRT01PN":null,"TRT01A":"Placebo","SITEGR1":900,"SITEID":710,"TRTSDT":"2013-11-17","TRTEDT":"2014-05-18","ITTFL":"Y","SAFFL":"Y","EFFFL":"N","COMPLFL":"Y"},{"STUDYID":"CDISCPILOT01","USUBJID":"01-710-1077","NDOSE":3,"PARAMCD":"CUMDOSE","AVAL":0,"PARAM":"Cumulative Dose (mg)","EXDURGR1":">168 days","TRTP":"Placebo","TRT01P":"Placebo","TRT01PN":null,"TRT01A":"Placebo","SITEGR1":900,"SITEID":710,"TRTSDT":"2013-11-17","TRTEDT":"2014-05-18","ITTFL":"Y","SAFFL":"Y","EFFFL":"N","COMPLFL":"Y"},{"STUDYID":"CDISCPILOT01","USUBJID":"01-710-1077","NDOSE":3,"PARAMCD":"AVGDD","AVAL":0,"PARAM":"Average Daily Dose (mg/day)","EXDURGR1":">168 days","TRTP":"Placebo","TRT01P":"Placebo","TRT01PN":null,"TRT01A":"Placebo","SITEGR1":900,"SITEID":710,"TRTSDT":"2013-11-17","TRTEDT":"2014-05-18","ITTFL":"Y","SAFFL":"Y","EFFFL":"N","COMPLFL":"Y"},{"STUDYID":"CDISCPILOT01","USUBJID":"01-710-1078","NDOSE":3,"PARAMCD":"TRTDUR","AVAL":188,"PARAM":"Duration of Exposure (days)","EXDURGR1":">168 days","TRTP":"Placebo","TRT01P":"Placebo","TRT01PN":null,"TRT01A":"Placebo","SITEGR1":900,"SITEID":710,"TRTSDT":"2013-09-17","TRTEDT":"2014-03-23","ITTFL":"Y","SAFFL":"Y","EFFFL":"N","COMPLFL":"Y"},{"STUDYID":"CDISCPILOT01","USUBJID":"01-710-1078","NDOSE":3,"PARAMCD":"CUMDOSE","AVAL":0,"PARAM":"Cumulative Dose (mg)","EXDURGR1":">168 days","TRTP":"Placebo","TRT01P":"Placebo","TRT01PN":null,"TRT01A":"Placebo","SITEGR1":900,"SITEID":710,"TRTSDT":"2013-09-17","TRTEDT":"2014-03-23","ITTFL":"Y","SAFFL":"Y","EFFFL":"N","COMPLFL":"Y"},{"STUDYID":"CDISCPILOT01","USUBJID":"01-710-1078","NDOSE":3,"PARAMCD":"AVGDD","AVAL":0,"PARAM":"Average Daily Dose (mg/day)","EXDURGR1":">168 days","TRTP":"Placebo","TRT01P":"Placebo","TRT01PN":null,"TRT01A":"Placebo","SITEGR1":900,"SITEID":710,"TRTSDT":"2013-09-17","TRTEDT":"2014-03-23","ITTFL":"Y","SAFFL":"Y","EFFFL":"N","COMPLFL":"Y"},{"STUDYID":"CDISCPILOT01","USUBJID":"01-710-1083","NDOSE":1,"PARAMCD":"TRTDUR","AVAL":11,"PARAM":"Duration of Exposure (days)","EXDURGR1":"<=30 days","TRTP":"Placebo","TRT01P":"Placebo","TRT01PN":null,"TRT01A":"Placebo","SITEGR1":900,"SITEID":710,"TRTSDT":"2013-07-22","TRTEDT":"2013-08-01","ITTFL":"Y","SAFFL":"Y","EFFFL":"N","COMPLFL":"N"},{"STUDYID":"CDISCPILOT01","USUBJID":"01-710-1083","NDOSE":1,"PARAMCD":"CUMDOSE","AVAL":0,"PARAM":"Cumulative Dose (mg)","EXDURGR1":"<=30 days","TRTP":"Placebo","TRT01P":"Placebo","TRT01PN":null,"TRT01A":"Placebo","SITEGR1":900,"SITEID":710,"TRTSDT":"2013-07-22","TRTEDT":"2013-08-01","ITTFL":"Y","SAFFL":"Y","EFFFL":"N","COMPLFL":"N"},{"STUDYID":"CDISCPILOT01","USUBJID":"01-710-1083","NDOSE":1,"PARAMCD":"AVGDD","AVAL":0,"PARAM":"Average Daily Dose (mg/day)","EXDURGR1":"<=30 days","TRTP":"Placebo","TRT01P":"Placebo","TRT01PN":null,"TRT01A":"Placebo","SITEGR1":900,"SITEID":710,"TRTSDT":"2013-07-22","TRTEDT":"2013-08-01","ITTFL":"Y","SAFFL":"Y","EFFFL":"N","COMPLFL":"N"},{"STUDYID":"CDISCPILOT01","USUBJID":"01-710-1137","NDOSE":2,"PARAMCD":"TRTDUR","AVAL":34,"PARAM":"Duration of Exposure (days)","EXDURGR1":"31-90 days","TRTP":"Xanomeline High Dose","TRT01P":"Xanomeline High Dose","TRT01PN":null,"TRT01A":"Xanomeline High Dose","SITEGR1":900,"SITEID":710,"TRTSDT":"2013-10-11","TRTEDT":"2013-11-13","ITTFL":"Y","SAFFL":"Y","EFFFL":"N","COMPLFL":"N"},{"STUDYID":"CDISCPILOT01","USUBJID":"01-710-1137","NDOSE":2,"PARAMCD":"CUMDOSE","AVAL":135,"PARAM":"Cumulative Dose (mg)","EXDURGR1":"31-90 days","TRTP":"Xanomeline High Dose","TRT01P":"Xanomeline High Dose","TRT01PN":null,"TRT01A":"Xanomeline High Dose","SITEGR1":900,"SITEID":710,"TRTSDT":"2013-10-11","TRTEDT":"2013-11-13","ITTFL":"Y","SAFFL":"Y","EFFFL":"N","COMPLFL":"N"},{"STUDYID":"CDISCPILOT01","USUBJID":"01-710-1137","NDOSE":2,"PARAMCD":"AVGDD","AVAL":3.9706,"PARAM":"Average Daily Dose (mg/day)","EXDURGR1":"31-90 days","TRTP":"Xanomeline High Dose","TRT01P":"Xanomeline High Dose","TRT01PN":null,"TRT01A":"Xanomeline High Dose","SITEGR1":900,"SITEID":710,"TRTSDT":"2013-10-11","TRTEDT":"2013-11-13","ITTFL":"Y","SAFFL":"Y","EFFFL":"N","COMPLFL":"N"},{"STUDYID":"CDISCPILOT01","USUBJID":"01-710-1142","NDOSE":2,"PARAMCD":"TRTDUR","AVAL":19,"PARAM":"Duration of Exposure (days)","EXDURGR1":"<=30 days","TRTP":"Xanomeline High Dose","TRT01P":"Xanomeline High Dose","TRT01PN":null,"TRT01A":"Xanomeline High Dose","SITEGR1":900,"SITEID":710,"TRTSDT":"2012-10-02","TRTEDT":"2012-10-20","ITTFL":"Y","SAFFL":"Y","EFFFL":"N","COMPLFL":"N"},{"STUDYID":"CDISCPILOT01","USUBJID":"01-710-1142","NDOSE":2,"PARAMCD":"CUMDOSE","AVAL":135,"PARAM":"Cumulative Dose (mg)","EXDURGR1":"<=30 days","TRTP":"Xanomeline High Dose","TRT01P":"Xanomeline High Dose","TRT01PN":null,"TRT01A":"Xanomeline High Dose","SITEGR1":900,"SITEID":710,"TRTSDT":"2012-10-02","TRTEDT":"2012-10-20","ITTFL":"Y","SAFFL":"Y","EFFFL":"N","COMPLFL":"N"},{"STUDYID":"CDISCPILOT01","USUBJID":"01-710-1142","NDOSE":2,"PARAMCD":"AVGDD","AVAL":7.1053,"PARAM":"Average Daily Dose (mg/day)","EXDURGR1":"<=30 days","TRTP":"Xanomeline High Dose","TRT01P":"Xanomeline High Dose","TRT01PN":null,"TRT01A":"Xanomeline High Dose","SITEGR1":900,"SITEID":710,"TRTSDT":"2012-10-02","TRTEDT":"2012-10-20","ITTFL":"Y","SAFFL":"Y","EFFFL":"N","COMPLFL":"N"},{"STUDYID":"CDISCPILOT01","USUBJID":"01-710-1154","NDOSE":2,"PARAMCD":"TRTDUR","AVAL":30,"PARAM":"Duration of Exposure (days)","EXDURGR1":"<=30 days","TRTP":"Xanomeline Low Dose","TRT01P":"Xanomeline Low Dose","TRT01PN":null,"TRT01A":"Xanomeline Low Dose","SITEGR1":900,"SITEID":710,"TRTSDT":"2014-03-29","TRTEDT":"2014-04-27","ITTFL":"Y","SAFFL":"Y","EFFFL":"N","COMPLFL":"N"},{"STUDYID":"CDISCPILOT01","USUBJID":"01-710-1154","NDOSE":2,"PARAMCD":"CUMDOSE","AVAL":108,"PARAM":"Cumulative Dose (mg)","EXDURGR1":"<=30 days","TRTP":"Xanomeline Low Dose","TRT01P":"Xanomeline Low Dose","TRT01PN":null,"TRT01A":"Xanomeline Low Dose","SITEGR1":900,"SITEID":710,"TRTSDT":"2014-03-29","TRTEDT":"2014-04-27","ITTFL":"Y","SAFFL":"Y","EFFFL":"N","COMPLFL":"N"},{"STUDYID":"CDISCPILOT01","USUBJID":"01-710-1154","NDOSE":2,"PARAMCD":"AVGDD","AVAL":3.6,"PARAM":"Average Daily Dose (mg/day)","EXDURGR1":"<=30 days","TRTP":"Xanomeline Low Dose","TRT01P":"Xanomeline Low Dose","TRT01PN":null,"TRT01A":"Xanomeline Low Dose","SITEGR1":900,"SITEID":710,"TRTSDT":"2014-03-29","TRTEDT":"2014-04-27","ITTFL":"Y","SAFFL":"Y","EFFFL":"N","COMPLFL":"N"},{"STUDYID":"CDISCPILOT01","USUBJID":"01-710-1166","NDOSE":2,"PARAMCD":"TRTDUR","AVAL":110,"PARAM":"Duration of Exposure (days)","EXDURGR1":"91-168 days","TRTP":"Xanomeline Low Dose","TRT01P":"Xanomeline Low Dose","TRT01PN":null,"TRT01A":"Xanomeline Low Dose","SITEGR1":900,"SITEID":710,"TRTSDT":"2012-11-30","TRTEDT":"2013-03-19","ITTFL":"Y","SAFFL":"Y","EFFFL":"N","COMPLFL":"N"},{"STUDYID":"CDISCPILOT01","USUBJID":"01-710-1166","NDOSE":2,"PARAMCD":"CUMDOSE","AVAL":108,"PARAM":"Cumulative Dose (mg)","EXDURGR1":"91-168 days","TRTP":"Xanomeline Low Dose","TRT01P":"Xanomeline Low Dose","TRT01PN":null,"TRT01A":"Xanomeline Low Dose","SITEGR1":900,"SITEID":710,"TRTSDT":"2012-11-30","TRTEDT":"2013-03-19","ITTFL":"Y","SAFFL":"Y","EFFFL":"N","COMPLFL":"N"},{"STUDYID":"CDISCPILOT01","USUBJID":"01-710-1166","NDOSE":2,"PARAMCD":"AVGDD","AVAL":0.9818,"PARAM":"Average Daily Dose (mg/day)","EXDURGR1":"91-168 days","TRTP":"Xanomeline Low Dose","TRT01P":"Xanomeline Low Dose","TRT01PN":null,"TRT01A":"Xanomeline Low Dose","SITEGR1":900,"SITEID":710,"TRTSDT":"2012-11-30","TRTEDT":"2013-03-19","ITTFL":"Y","SAFFL":"Y","EFFFL":"N","COMPLFL":"N"},{"STUDYID":"CDISCPILOT01","USUBJID":"01-710-1183","NDOSE":3,"PARAMCD":"TRTDUR","AVAL":183,"PARAM":"Duration of Exposure (days)","EXDURGR1":">168 days","TRTP":"Placebo","TRT01P":"Placebo","TRT01PN":null,"TRT01A":"Placebo","SITEGR1":900,"SITEID":710,"TRTSDT":"2013-11-16","TRTEDT":"2014-05-17","ITTFL":"Y","SAFFL":"Y","EFFFL":"N","COMPLFL":"Y"},{"STUDYID":"CDISCPILOT01","USUBJID":"01-710-1183","NDOSE":3,"PARAMCD":"CUMDOSE","AVAL":0,"PARAM":"Cumulative Dose (mg)","EXDURGR1":">168 days","TRTP":"Placebo","TRT01P":"Placebo","TRT01PN":null,"TRT01A":"Placebo","SITEGR1":900,"SITEID":710,"TRTSDT":"2013-11-16","TRTEDT":"2014-05-17","ITTFL":"Y","SAFFL":"Y","EFFFL":"N","COMPLFL":"Y"},{"STUDYID":"CDISCPILOT01","USUBJID":"01-710-1183","NDOSE":3,"PARAMCD":"AVGDD","AVAL":0,"PARAM":"Average Daily Dose (mg/day)","EXDURGR1":">168 days","TRTP":"Placebo","TRT01P":"Placebo","TRT01PN":null,"TRT01A":"Placebo","SITEGR1":900,"SITEID":710,"TRTSDT":"2013-11-16","TRTEDT":"2014-05-17","ITTFL":"Y","SAFFL":"Y","EFFFL":"N","COMPLFL":"Y"},{"STUDYID":"CDISCPILOT01","USUBJID":"01-710-1187","NDOSE":3,"PARAMCD":"TRTDUR","AVAL":184,"PARAM":"Duration of Exposure (days)","EXDURGR1":">168 days","TRTP":"Xanomeline High Dose","TRT01P":"Xanomeline High Dose","TRT01PN":null,"TRT01A":"Xanomeline High Dose","SITEGR1":900,"SITEID":710,"TRTSDT":"2012-11-10","TRTEDT":"2013-05-12","ITTFL":"Y","SAFFL":"Y","EFFFL":"N","COMPLFL":"Y"},{"STUDYID":"CDISCPILOT01","USUBJID":"01-710-1187","NDOSE":3,"PARAMCD":"CUMDOSE","AVAL":189,"PARAM":"Cumulative Dose (mg)","EXDURGR1":">168 days","TRTP":"Xanomeline High Dose","TRT01P":"Xanomeline High Dose","TRT01PN":null,"TRT01A":"Xanomeline High Dose","SITEGR1":900,"SITEID":710,"TRTSDT":"2012-11-10","TRTEDT":"2013-05-12","ITTFL":"Y","SAFFL":"Y","EFFFL":"N","COMPLFL":"Y"},{"STUDYID":"CDISCPILOT01","USUBJID":"01-710-1187","NDOSE":3,"PARAMCD":"AVGDD","AVAL":1.0272,"PARAM":"Average Daily Dose (mg/day)","EXDURGR1":">168 days","TRTP":"Xanomeline High Dose","TRT01P":"Xanomeline High Dose","TRT01PN":null,"TRT01A":"Xanomeline High Dose","SITEGR1":900,"SITEID":710,"TRTSDT":"2012-11-10","TRTEDT":"2013-05-12","ITTFL":"Y","SAFFL":"Y","EFFFL":"N","COMPLFL":"Y"},{"STUDYID":"CDISCPILOT01","USUBJID":"01-710-1235","NDOSE":3,"PARAMCD":"TRTDUR","AVAL":183,"PARAM":"Duration of Exposure (days)","EXDURGR1":">168 days","TRTP":"Xanomeline Low Dose","TRT01P":"Xanomeline Low Dose","TRT01PN":null,"TRT01A":"Xanomeline Low Dose","SITEGR1":900,"SITEID":710,"TRTSDT":"2012-09-26","TRTEDT":"2013-03-27","ITTFL":"Y","SAFFL":"Y","EFFFL":"N","COMPLFL":"Y"},{"STUDYID":"CDISCPILOT01","USUBJID":"01-710-1235","NDOSE":3,"PARAMCD":"CUMDOSE","AVAL":162,"PARAM":"Cumulative Dose (mg)","EXDURGR1":">168 days","TRTP":"Xanomeline Low Dose","TRT01P":"Xanomeline Low Dose","TRT01PN":null,"TRT01A":"Xanomeline Low Dose","SITEGR1":900,"SITEID":710,"TRTSDT":"2012-09-26","TRTEDT":"2013-03-27","ITTFL":"Y","SAFFL":"Y","EFFFL":"N","COMPLFL":"Y"},{"STUDYID":"CDISCPILOT01","USUBJID":"01-710-1235","NDOSE":3,"PARAMCD":"AVGDD","AVAL":0.8852,"PARAM":"Average Daily Dose (mg/day)","EXDURGR1":">168 days","TRTP":"Xanomeline Low Dose","TRT01P":"Xanomeline Low Dose","TRT01PN":null,"TRT01A":"Xanomeline Low Dose","SITEGR1":900,"SITEID":710,"TRTSDT":"2012-09-26","TRTEDT":"2013-03-27","ITTFL":"Y","SAFFL":"Y","EFFFL":"N","COMPLFL":"Y"},{"STUDYID":"CDISCPILOT01","USUBJID":"01-710-1249","NDOSE":3,"PARAMCD":"TRTDUR","AVAL":183,"PARAM":"Duration of Exposure (days)","EXDURGR1":">168 days","TRTP":"Xanomeline High Dose","TRT01P":"Xanomeline High Dose","TRT01PN":null,"TRT01A":"Xanomeline High Dose","SITEGR1":900,"SITEID":710,"TRTSDT":"2013-12-28","TRTEDT":"2014-06-28","ITTFL":"Y","SAFFL":"Y","EFFFL":"N","COMPLFL":"Y"},{"STUDYID":"CDISCPILOT01","USUBJID":"01-710-1249","NDOSE":3,"PARAMCD":"CUMDOSE","AVAL":189,"PARAM":"Cumulative Dose (mg)","EXDURGR1":">168 days","TRTP":"Xanomeline High Dose","TRT01P":"Xanomeline High Dose","TRT01PN":null,"TRT01A":"Xanomeline High Dose","SITEGR1":900,"SITEID":710,"TRTSDT":"2013-12-28","TRTEDT":"2014-06-28","ITTFL":"Y","SAFFL":"Y","EFFFL":"N","COMPLFL":"Y"},{"STUDYID":"CDISCPILOT01","USUBJID":"01-710-1249","NDOSE":3,"PARAMCD":"AVGDD","AVAL":1.0328,"PARAM":"Average Daily Dose (mg/day)","EXDURGR1":">168 days","TRTP":"Xanomeline High Dose","TRT01P":"Xanomeline High Dose","TRT01PN":null,"TRT01A":"Xanomeline High Dose","SITEGR1":900,"SITEID":710,"TRTSDT":"2013-12-28","TRTEDT":"2014-06-28","ITTFL":"Y","SAFFL":"Y","EFFFL":"N","COMPLFL":"Y"},{"STUDYID":"CDISCPILOT01","USUBJID":"01-710-1264","NDOSE":2,"PARAMCD":"TRTDUR","AVAL":121,"PARAM":"Duration of Exposure (days)","EXDURGR1":"91-168 days","TRTP":"Placebo","TRT01P":"Placebo","TRT01PN":null,"TRT01A":"Placebo","SITEGR1":900,"SITEID":710,"TRTSDT":"2013-06-13","TRTEDT":"2013-10-11","ITTFL":"Y","SAFFL":"Y","EFFFL":"N","COMPLFL":"N"},{"STUDYID":"CDISCPILOT01","USUBJID":"01-710-1264","NDOSE":2,"PARAMCD":"CUMDOSE","AVAL":0,"PARAM":"Cumulative Dose (mg)","EXDURGR1":"91-168 days","TRTP":"Placebo","TRT01P":"Placebo","TRT01PN":null,"TRT01A":"Placebo","SITEGR1":900,"SITEID":710,"TRTSDT":"2013-06-13","TRTEDT":"2013-10-11","ITTFL":"Y","SAFFL":"Y","EFFFL":"N","COMPLFL":"N"},{"STUDYID":"CDISCPILOT01","USUBJID":"01-710-1264","NDOSE":2,"PARAMCD":"AVGDD","AVAL":0,"PARAM":"Average Daily Dose (mg/day)","EXDURGR1":"91-168 days","TRTP":"Placebo","TRT01P":"Placebo","TRT01PN":null,"TRT01A":"Placebo","SITEGR1":900,"SITEID":710,"TRTSDT":"2013-06-13","TRTEDT":"2013-10-11","ITTFL":"Y","SAFFL":"Y","EFFFL":"N","COMPLFL":"N"},{"STUDYID":"CDISCPILOT01","USUBJID":"01-710-1270","NDOSE":1,"PARAMCD":"TRTDUR","AVAL":18,"PARAM":"Duration of Exposure (days)","EXDURGR1":"<=30 days","TRTP":"Xanomeline Low Dose","TRT01P":"Xanomeline Low Dose","TRT01PN":null,"TRT01A":"Xanomeline Low Dose","SITEGR1":900,"SITEID":710,"TRTSDT":"2014-02-12","TRTEDT":"2014-03-01","ITTFL":"Y","SAFFL":"Y","EFFFL":"N","COMPLFL":"N"},{"STUDYID":"CDISCPILOT01","USUBJID":"01-710-1270","NDOSE":1,"PARAMCD":"CUMDOSE","AVAL":54,"PARAM":"Cumulative Dose (mg)","EXDURGR1":"<=30 days","TRTP":"Xanomeline Low Dose","TRT01P":"Xanomeline Low Dose","TRT01PN":null,"TRT01A":"Xanomeline Low Dose","SITEGR1":900,"SITEID":710,"TRTSDT":"2014-02-12","TRTEDT":"2014-03-01","ITTFL":"Y","SAFFL":"Y","EFFFL":"N","COMPLFL":"N"},{"STUDYID":"CDISCPILOT01","USUBJID":"01-710-1270","NDOSE":1,"PARAMCD":"AVGDD","AVAL":3,"PARAM":"Average Daily Dose (mg/day)","EXDURGR1":"<=30 days","TRTP":"Xanomeline Low Dose","TRT01P":"Xanomeline Low Dose","TRT01PN":null,"TRT01A":"Xanomeline Low Dose","SITEGR1":900,"SITEID":710,"TRTSDT":"2014-02-12","TRTEDT":"2014-03-01","ITTFL":"Y","SAFFL":"Y","EFFFL":"N","COMPLFL":"N"},{"STUDYID":"CDISCPILOT01","USUBJID":"01-710-1271","NDOSE":2,"PARAMCD":"TRTDUR","AVAL":56,"PARAM":"Duration of Exposure (days)","EXDURGR1":"31-90 days","TRTP":"Placebo","TRT01P":"Placebo","TRT01PN":null,"TRT01A":"Placebo","SITEGR1":900,"SITEID":710,"TRTSDT":"2012-09-27","TRTEDT":"2012-11-21","ITTFL":"Y","SAFFL":"Y","EFFFL":"N","COMPLFL":"N"},{"STUDYID":"CDISCPILOT01","USUBJID":"01-710-1271","NDOSE":2,"PARAMCD":"CUMDOSE","AVAL":0,"PARAM":"Cumulative Dose (mg)","EXDURGR1":"31-90 days","TRTP":"Placebo","TRT01P":"Placebo","TRT01PN":null,"TRT01A":"Placebo","SITEGR1":900,"SITEID":710,"TRTSDT":"2012-09-27","TRTEDT":"2012-11-21","ITTFL":"Y","SAFFL":"Y","EFFFL":"N","COMPLFL":"N"},{"STUDYID":"CDISCPILOT01","USUBJID":"01-710-1271","NDOSE":2,"PARAMCD":"AVGDD","AVAL":0,"PARAM":"Average Daily Dose (mg/day)","EXDURGR1":"31-90 days","TRTP":"Placebo","TRT01P":"Placebo","TRT01PN":null,"TRT01A":"Placebo","SITEGR1":900,"SITEID":710,"TRTSDT":"2012-09-27","TRTEDT":"2012-11-21","ITTFL":"Y","SAFFL":"Y","EFFFL":"N","COMPLFL":"N"},{"STUDYID":"CDISCPILOT01","USUBJID":"01-710-1278","NDOSE":2,"PARAMCD":"TRTDUR","AVAL":65,"PARAM":"Duration of Exposure (days)","EXDURGR1":"31-90 days","TRTP":"Xanomeline High Dose","TRT01P":"Xanomeline High Dose","TRT01PN":null,"TRT01A":"Xanomeline High Dose","SITEGR1":900,"SITEID":710,"TRTSDT":"2012-12-24","TRTEDT":"2013-02-26","ITTFL":"Y","SAFFL":"Y","EFFFL":"N","COMPLFL":"N"},{"STUDYID":"CDISCPILOT01","USUBJID":"01-710-1278","NDOSE":2,"PARAMCD":"CUMDOSE","AVAL":135,"PARAM":"Cumulative Dose (mg)","EXDURGR1":"31-90 days","TRTP":"Xanomeline High Dose","TRT01P":"Xanomeline High Dose","TRT01PN":null,"TRT01A":"Xanomeline High Dose","SITEGR1":900,"SITEID":710,"TRTSDT":"2012-12-24","TRTEDT":"2013-02-26","ITTFL":"Y","SAFFL":"Y","EFFFL":"N","COMPLFL":"N"},{"STUDYID":"CDISCPILOT01","USUBJID":"01-710-1278","NDOSE":2,"PARAMCD":"AVGDD","AVAL":2.0769,"PARAM":"Average Daily Dose (mg/day)","EXDURGR1":"31-90 days","TRTP":"Xanomeline High Dose","TRT01P":"Xanomeline High Dose","TRT01PN":null,"TRT01A":"Xanomeline High Dose","SITEGR1":900,"SITEID":710,"TRTSDT":"2012-12-24","TRTEDT":"2013-02-26","ITTFL":"Y","SAFFL":"Y","EFFFL":"N","COMPLFL":"N"},{"STUDYID":"CDISCPILOT01","USUBJID":"01-710-1300","NDOSE":2,"PARAMCD":"TRTDUR","AVAL":63,"PARAM":"Duration of Exposure (days)","EXDURGR1":"31-90 days","TRTP":"Xanomeline Low Dose","TRT01P":"Xanomeline Low Dose","TRT01PN":null,"TRT01A":"Xanomeline Low Dose","SITEGR1":900,"SITEID":710,"TRTSDT":"2012-12-15","TRTEDT":"2013-02-15","ITTFL":"Y","SAFFL":"Y","EFFFL":"N","COMPLFL":"N"},{"STUDYID":"CDISCPILOT01","USUBJID":"01-710-1300","NDOSE":2,"PARAMCD":"CUMDOSE","AVAL":108,"PARAM":"Cumulative Dose (mg)","EXDURGR1":"31-90 days","TRTP":"Xanomeline Low Dose","TRT01P":"Xanomeline Low Dose","TRT01PN":null,"TRT01A":"Xanomeline Low Dose","SITEGR1":900,"SITEID":710,"TRTSDT":"2012-12-15","TRTEDT":"2013-02-15","ITTFL":"Y","SAFFL":"Y","EFFFL":"N","COMPLFL":"N"},{"STUDYID":"CDISCPILOT01","USUBJID":"01-710-1300","NDOSE":2,"PARAMCD":"AVGDD","AVAL":1.7143,"PARAM":"Average Daily Dose (mg/day)","EXDURGR1":"31-90 days","TRTP":"Xanomeline Low Dose","TRT01P":"Xanomeline Low Dose","TRT01PN":null,"TRT01A":"Xanomeline Low Dose","SITEGR1":900,"SITEID":710,"TRTSDT":"2012-12-15","TRTEDT":"2013-02-15","ITTFL":"Y","SAFFL":"Y","EFFFL":"N","COMPLFL":"N"},{"STUDYID":"CDISCPILOT01","USUBJID":"01-710-1314","NDOSE":2,"PARAMCD":"TRTDUR","AVAL":30,"PARAM":"Duration of Exposure (days)","EXDURGR1":"<=30 days","TRTP":"Placebo","TRT01P":"Placebo","TRT01PN":null,"TRT01A":"Placebo","SITEGR1":900,"SITEID":710,"TRTSDT":"2013-04-24","TRTEDT":"2013-05-23","ITTFL":"Y","SAFFL":"Y","EFFFL":"N","COMPLFL":"N"},{"STUDYID":"CDISCPILOT01","USUBJID":"01-710-1314","NDOSE":2,"PARAMCD":"CUMDOSE","AVAL":0,"PARAM":"Cumulative Dose (mg)","EXDURGR1":"<=30 days","TRTP":"Placebo","TRT01P":"Placebo","TRT01PN":null,"TRT01A":"Placebo","SITEGR1":900,"SITEID":710,"TRTSDT":"2013-04-24","TRTEDT":"2013-05-23","ITTFL":"Y","SAFFL":"Y","EFFFL":"N","COMPLFL":"N"},{"STUDYID":"CDISCPILOT01","USUBJID":"01-710-1314","NDOSE":2,"PARAMCD":"AVGDD","AVAL":0,"PARAM":"Average Daily Dose (mg/day)","EXDURGR1":"<=30 days","TRTP":"Placebo","TRT01P":"Placebo","TRT01PN":null,"TRT01A":"Placebo","SITEGR1":900,"SITEID":710,"TRTSDT":"2013-04-24","TRTEDT":"2013-05-23","ITTFL":"Y","SAFFL":"Y","EFFFL":"N","COMPLFL":"N"},{"STUDYID":"CDISCPILOT01","USUBJID":"01-710-1315","NDOSE":2,"PARAMCD":"TRTDUR","AVAL":130,"PARAM":"Duration of Exposure (days)","EXDURGR1":"91-168 days","TRTP":"Placebo","TRT01P":"Placebo","TRT01PN":null,"TRT01A":"Placebo","SITEGR1":900,"SITEID":710,"TRTSDT":"2013-02-27","TRTEDT":"2013-07-06","ITTFL":"Y","SAFFL":"Y","EFFFL":"N","COMPLFL":"N"},{"STUDYID":"CDISCPILOT01","USUBJID":"01-710-1315","NDOSE":2,"PARAMCD":"CUMDOSE","AVAL":0,"PARAM":"Cumulative Dose (mg)","EXDURGR1":"91-168 days","TRTP":"Placebo","TRT01P":"Placebo","TRT01PN":null,"TRT01A":"Placebo","SITEGR1":900,"SITEID":710,"TRTSDT":"2013-02-27","TRTEDT":"2013-07-06","ITTFL":"Y","SAFFL":"Y","EFFFL":"N","COMPLFL":"N"},{"STUDYID":"CDISCPILOT01","USUBJID":"01-710-1315","NDOSE":2,"PARAMCD":"AVGDD","AVAL":0,"PARAM":"Average Daily Dose (mg/day)","EXDURGR1":"91-168 days","TRTP":"Placebo","TRT01P":"Placebo","TRT01PN":null,"TRT01A":"Placebo","SITEGR1":900,"SITEID":710,"TRTSDT":"2013-02-27","TRTEDT":"2013-07-06","ITTFL":"Y","SAFFL":"Y","EFFFL":"N","COMPLFL":"N"},{"STUDYID":"CDISCPILOT01","USUBJID":"01-710-1354","NDOSE":3,"PARAMCD":"TRTDUR","AVAL":172,"PARAM":"Duration of Exposure (days)","EXDURGR1":">168 days","TRTP":"Xanomeline High Dose","TRT01P":"Xanomeline High Dose","TRT01PN":null,"TRT01A":"Xanomeline High Dose","SITEGR1":900,"SITEID":710,"TRTSDT":"2012-11-11","TRTEDT":"2013-05-01","ITTFL":"Y","SAFFL":"Y","EFFFL":"N","COMPLFL":"Y"},{"STUDYID":"CDISCPILOT01","USUBJID":"01-710-1354","NDOSE":3,"PARAMCD":"CUMDOSE","AVAL":189,"PARAM":"Cumulative Dose (mg)","EXDURGR1":">168 days","TRTP":"Xanomeline High Dose","TRT01P":"Xanomeline High Dose","TRT01PN":null,"TRT01A":"Xanomeline High Dose","SITEGR1":900,"SITEID":710,"TRTSDT":"2012-11-11","TRTEDT":"2013-05-01","ITTFL":"Y","SAFFL":"Y","EFFFL":"N","COMPLFL":"Y"},{"STUDYID":"CDISCPILOT01","USUBJID":"01-710-1354","NDOSE":3,"PARAMCD":"AVGDD","AVAL":1.0988,"PARAM":"Average Daily Dose (mg/day)","EXDURGR1":">168 days","TRTP":"Xanomeline High Dose","TRT01P":"Xanomeline High Dose","TRT01PN":null,"TRT01A":"Xanomeline High Dose","SITEGR1":900,"SITEID":710,"TRTSDT":"2012-11-11","TRTEDT":"2013-05-01","ITTFL":"Y","SAFFL":"Y","EFFFL":"N","COMPLFL":"Y"},{"STUDYID":"CDISCPILOT01","USUBJID":"01-710-1358","NDOSE":2,"PARAMCD":"TRTDUR","AVAL":146,"PARAM":"Duration of Exposure (days)","EXDURGR1":"91-168 days","TRTP":"Xanomeline Low Dose","TRT01P":"Xanomeline Low Dose","TRT01PN":null,"TRT01A":"Xanomeline Low Dose","SITEGR1":900,"SITEID":710,"TRTSDT":"2012-09-17","TRTEDT":"2013-02-09","ITTFL":"Y","SAFFL":"Y","EFFFL":"N","COMPLFL":"N"},{"STUDYID":"CDISCPILOT01","USUBJID":"01-710-1358","NDOSE":2,"PARAMCD":"CUMDOSE","AVAL":108,"PARAM":"Cumulative Dose (mg)","EXDURGR1":"91-168 days","TRTP":"Xanomeline Low Dose","TRT01P":"Xanomeline Low Dose","TRT01PN":null,"TRT01A":"Xanomeline Low Dose","SITEGR1":900,"SITEID":710,"TRTSDT":"2012-09-17","TRTEDT":"2013-02-09","ITTFL":"Y","SAFFL":"Y","EFFFL":"N","COMPLFL":"N"},{"STUDYID":"CDISCPILOT01","USUBJID":"01-710-1358","NDOSE":2,"PARAMCD":"AVGDD","AVAL":0.7397,"PARAM":"Average Daily Dose (mg/day)","EXDURGR1":"91-168 days","TRTP":"Xanomeline Low Dose","TRT01P":"Xanomeline Low Dose","TRT01PN":null,"TRT01A":"Xanomeline Low Dose","SITEGR1":900,"SITEID":710,"TRTSDT":"2012-09-17","TRTEDT":"2013-02-09","ITTFL":"Y","SAFFL":"Y","EFFFL":"N","COMPLFL":"N"},{"STUDYID":"CDISCPILOT01","USUBJID":"01-710-1368","NDOSE":3,"PARAMCD":"TRTDUR","AVAL":184,"PARAM":"Duration of Exposure (days)","EXDURGR1":">168 days","TRTP":"Placebo","TRT01P":"Placebo","TRT01PN":null,"TRT01A":"Placebo","SITEGR1":900,"SITEID":710,"TRTSDT":"2013-10-23","TRTEDT":"2014-04-24","ITTFL":"Y","SAFFL":"Y","EFFFL":"N","COMPLFL":"Y"},{"STUDYID":"CDISCPILOT01","USUBJID":"01-710-1368","NDOSE":3,"PARAMCD":"CUMDOSE","AVAL":0,"PARAM":"Cumulative Dose (mg)","EXDURGR1":">168 days","TRTP":"Placebo","TRT01P":"Placebo","TRT01PN":null,"TRT01A":"Placebo","SITEGR1":900,"SITEID":710,"TRTSDT":"2013-10-23","TRTEDT":"2014-04-24","ITTFL":"Y","SAFFL":"Y","EFFFL":"N","COMPLFL":"Y"},{"STUDYID":"CDISCPILOT01","USUBJID":"01-710-1368","NDOSE":3,"PARAMCD":"AVGDD","AVAL":0,"PARAM":"Average Daily Dose (mg/day)","EXDURGR1":">168 days","TRTP":"Placebo","TRT01P":"Placebo","TRT01PN":null,"TRT01A":"Placebo","SITEGR1":900,"SITEID":710,"TRTSDT":"2013-10-23","TRTEDT":"2014-04-24","ITTFL":"Y","SAFFL":"Y","EFFFL":"N","COMPLFL":"Y"},{"STUDYID":"CDISCPILOT01","USUBJID":"01-710-1385","NDOSE":2,"PARAMCD":"TRTDUR","AVAL":113,"PARAM":"Duration of Exposure (days)","EXDURGR1":"91-168 days","TRTP":"Xanomeline Low Dose","TRT01P":"Xanomeline Low Dose","TRT01PN":null,"TRT01A":"Xanomeline Low Dose","SITEGR1":900,"SITEID":710,"TRTSDT":"2012-10-29","TRTEDT":"2013-02-18","ITTFL":"Y","SAFFL":"Y","EFFFL":"N","COMPLFL":"N"},{"STUDYID":"CDISCPILOT01","USUBJID":"01-710-1385","NDOSE":2,"PARAMCD":"CUMDOSE","AVAL":108,"PARAM":"Cumulative Dose (mg)","EXDURGR1":"91-168 days","TRTP":"Xanomeline Low Dose","TRT01P":"Xanomeline Low Dose","TRT01PN":null,"TRT01A":"Xanomeline Low Dose","SITEGR1":900,"SITEID":710,"TRTSDT":"2012-10-29","TRTEDT":"2013-02-18","ITTFL":"Y","SAFFL":"Y","EFFFL":"N","COMPLFL":"N"},{"STUDYID":"CDISCPILOT01","USUBJID":"01-710-1385","NDOSE":2,"PARAMCD":"AVGDD","AVAL":0.9558,"PARAM":"Average Daily Dose (mg/day)","EXDURGR1":"91-168 days","TRTP":"Xanomeline Low Dose","TRT01P":"Xanomeline Low Dose","TRT01PN":null,"TRT01A":"Xanomeline Low Dose","SITEGR1":900,"SITEID":710,"TRTSDT":"2012-10-29","TRTEDT":"2013-02-18","ITTFL":"Y","SAFFL":"Y","EFFFL":"N","COMPLFL":"N"},{"STUDYID":"CDISCPILOT01","USUBJID":"01-710-1408","NDOSE":3,"PARAMCD":"TRTDUR","AVAL":189,"PARAM":"Duration of Exposure (days)","EXDURGR1":">168 days","TRTP":"Xanomeline High Dose","TRT01P":"Xanomeline High Dose","TRT01PN":null,"TRT01A":"Xanomeline High Dose","SITEGR1":900,"SITEID":710,"TRTSDT":"2013-01-05","TRTEDT":"2013-07-12","ITTFL":"Y","SAFFL":"Y","EFFFL":"N","COMPLFL":"Y"},{"STUDYID":"CDISCPILOT01","USUBJID":"01-710-1408","NDOSE":3,"PARAMCD":"CUMDOSE","AVAL":189,"PARAM":"Cumulative Dose (mg)","EXD