[{"STUDYID":"CDISCPILOT01","USUBJID":"01-701-1015","MHSEQ":9,"MHTERM":"ALZHEIMER'S DISEASE","MHDECOD":"ALZHEIMER'S DISEASE","MHBODSYS":"(uncoded - no MedDRA SOC in source)","ASTDT":"2010-04-30","ASTDY":null,"TRTP":"Placebo","TRT01P":"Placebo","TRT01PN":null,"TRT01A":"Placebo","SITEGR1":900,"SITEID":701,"TRTSDT":"2014-01-02","TRTEDT":"2014-07-02","ITTFL":"Y","SAFFL":"Y","EFFFL":"N","COMPLFL":"Y"},{"STUDYID":"CDISCPILOT01","USUBJID":"01-701-1015","MHSEQ":1,"MHTERM":"VERBATIM_0135","MHDECOD":"VERBATIM_0135","MHBODSYS":"(uncoded - no MedDRA SOC in source)","ASTDT":null,"ASTDY":null,"TRTP":"Placebo","TRT01P":"Placebo","TRT01PN":null,"TRT01A":"Placebo","SITEGR1":900,"SITEID":701,"TRTSDT":"2014-01-02","TRTEDT":"2014-07-02","ITTFL":"Y","SAFFL":"Y","EFFFL":"N","COMPLFL":"Y"},{"STUDYID":"CDISCPILOT01","USUBJID":"01-701-1015","MHSEQ":8,"MHTERM":"VERBATIM_0140","MHDECOD":"VERBATIM_0140","MHBODSYS":"(uncoded - no MedDRA SOC in source)","ASTDT":null,"ASTDY":null,"TRTP":"Placebo","TRT01P":"Placebo","TRT01PN":null,"TRT01A":"Placebo","SITEGR1":900,"SITEID":701,"TRTSDT":"2014-01-02","TRTEDT":"2014-07-02","ITTFL":"Y","SAFFL":"Y","EFFFL":"N","COMPLFL":"Y"},{"STUDYID":"CDISCPILOT01","USUBJID":"01-701-1015","MHSEQ":2,"MHTERM":"VERBATIM_0301","MHDECOD":"VERBATIM_0301","MHBODSYS":"(uncoded - no MedDRA SOC in source)","ASTDT":null,"ASTDY":null,"TRTP":"Placebo","TRT01P":"Placebo","TRT01PN":null,"TRT01A":"Placebo","SITEGR1":900,"SITEID":701,"TRTSDT":"2014-01-02","TRTEDT":"2014-07-02","ITTFL":"Y","SAFFL":"Y","EFFFL":"N","COMPLFL":"Y"},{"STUDYID":"CDISCPILOT01","USUBJID":"01-701-1015","MHSEQ":10,"MHTERM":"VERBATIM_0539","MHDECOD":"VERBATIM_0539","MHBODSYS":"(uncoded - no MedDRA SOC in source)","ASTDT":null,"ASTDY":null,"TRTP":"Placebo","TRT01P":"Placebo","TRT01PN":null,"TRT01A":"Placebo","SITEGR1":900,"SITEID":701,"TRTSDT":"2014-01-02","TRTEDT":"2014-07-02","ITTFL":"Y","SAFFL":"Y","EFFFL":"N","COMPLFL":"Y"},{"STUDYID":"CDISCPILOT01","USUBJID":"01-701-1015","MHSEQ":3,"MHTERM":"VERBATIM_0825","MHDECOD":"VERBATIM_0825","MHBODSYS":"(uncoded - no MedDRA SOC in source)","ASTDT":null,"ASTDY":null,"TRTP":"Placebo","TRT01P":"Placebo","TRT01PN":null,"TRT01A":"Placebo","SITEGR1":900,"SITEID":701,"TRTSDT":"2014-01-02","TRTEDT":"2014-07-02","ITTFL":"Y","SAFFL":"Y","EFFFL":"N","COMPLFL":"Y"},{"STUDYID":"CDISCPILOT01","USUBJID":"01-701-1015","MHSEQ":4,"MHTERM":"VERBATIM_0841","MHDECOD":"VERBATIM_0841","MHBODSYS":"(uncoded - no MedDRA SOC in source)","ASTDT":null,"ASTDY":null,"TRTP":"Placebo","TRT01P":"Placebo","TRT01PN":null,"TRT01A":"Placebo","SITEGR1":900,"SITEID":701,"TRTSDT":"2014-01-02","TRTEDT":"2014-07-02","ITTFL":"Y","SAFFL":"Y","EFFFL":"N","COMPLFL":"Y"},{"STUDYID":"CDISCPILOT01","USUBJID":"01-701-1015","MHSEQ":6,"MHTERM":"VERBATIM_1004","MHDECOD":"VERBATIM_1004","MHBODSYS":"(uncoded - no MedDRA SOC in source)","ASTDT":null,"ASTDY":null,"TRTP":"Placebo","TRT01P":"Placebo","TRT01PN":null,"TRT01A":"Placebo","SITEGR1":900,"SITEID":701,"TRTSDT":"2014-01-02","TRTEDT":"2014-07-02","ITTFL":"Y","SAFFL":"Y","EFFFL":"N","COMPLFL":"Y"},{"STUDYID":"CDISCPILOT01","USUBJID":"01-701-1015","MHSEQ":11,"MHTERM":"VERBATIM_1230","MHDECOD":"VERBATIM_1230","MHBODSYS":"(uncoded - no MedDRA SOC in source)","ASTDT":null,"ASTDY":null,"TRTP":"Placebo","TRT01P":"Placebo","TRT01PN":null,"TRT01A":"Placebo","SITEGR1":900,"SITEID":701,"TRTSDT":"2014-01-02","TRTEDT":"2014-07-02","ITTFL":"Y","SAFFL":"Y","EFFFL":"N","COMPLFL":"Y"},{"STUDYID":"CDISCPILOT01","USUBJID":"01-701-1015","MHSEQ":7,"MHTERM":"VERBATIM_1716","MHDECOD":"VERBATIM_1716","MHBODSYS":"(uncoded - no MedDRA SOC in source)","ASTDT":null,"ASTDY":null,"TRTP":"Placebo","TRT01P":"Placebo","TRT01PN":null,"TRT01A":"Placebo","SITEGR1":900,"SITEID":701,"TRTSDT":"2014-01-02","TRTEDT":"2014-07-02","ITTFL":"Y","SAFFL":"Y","EFFFL":"N","COMPLFL":"Y"},{"STUDYID":"CDISCPILOT01","USUBJID":"01-701-1015","MHSEQ":5,"MHTERM":"VERBATIM_1779","MHDECOD":"VERBATIM_1779","MHBODSYS":"(uncoded - no MedDRA SOC in source)","ASTDT":null,"ASTDY":null,"TRTP":"Placebo","TRT01P":"Placebo","TRT01PN":null,"TRT01A":"Placebo","SITEGR1":900,"SITEID":701,"TRTSDT":"2014-01-02","TRTEDT":"2014-07-02","ITTFL":"Y","SAFFL":"Y","EFFFL":"N","COMPLFL":"Y"},{"STUDYID":"CDISCPILOT01","USUBJID":"01-701-1023","MHSEQ":16,"MHTERM":"ALZHEIMER'S DISEASE","MHDECOD":"ALZHEIMER'S DISEASE","MHBODSYS":"(uncoded - no MedDRA SOC in source)","ASTDT":"2006-03-11","ASTDY":null,"TRTP":"Placebo","TRT01P":"Placebo","TRT01PN":null,"TRT01A":"Placebo","SITEGR1":900,"SITEID":701,"TRTSDT":"2012-08-05","TRTEDT":"2012-09-01","ITTFL":"Y","SAFFL":"Y","EFFFL":"N","COMPLFL":"N"},{"STUDYID":"CDISCPILOT01","USUBJID":"01-701-1023","MHSEQ":21,"MHTERM":"VERBATIM_0073","MHDECOD":"VERBATIM_0073","MHBODSYS":"(uncoded - no MedDRA SOC in source)","ASTDT":null,"ASTDY":null,"TRTP":"Placebo","TRT01P":"Placebo","TRT01PN":null,"TRT01A":"Placebo","SITEGR1":900,"SITEID":701,"TRTSDT":"2012-08-05","TRTEDT":"2012-09-01","ITTFL":"Y","SAFFL":"Y","EFFFL":"N","COMPLFL":"N"},{"STUDYID":"CDISCPILOT01","USUBJID":"01-701-1023","MHSEQ":1,"MHTERM":"VERBATIM_0249","MHDECOD":"VERBATIM_0249","MHBODSYS":"(uncoded - no MedDRA SOC in source)","ASTDT":null,"ASTDY":null,"TRTP":"Placebo","TRT01P":"Placebo","TRT01PN":null,"TRT01A":"Placebo","SITEGR1":900,"SITEID":701,"TRTSDT":"2012-08-05","TRTEDT":"2012-09-01","ITTFL":"Y","SAFFL":"Y","EFFFL":"N","COMPLFL":"N"},{"STUDYID":"CDISCPILOT01","USUBJID":"01-701-1023","MHSEQ":19,"MHTERM":"VERBATIM_0291","MHDECOD":"VERBATIM_0291","MHBODSYS":"(uncoded - no MedDRA SOC in source)","ASTDT":null,"ASTDY":null,"TRTP":"Placebo","TRT01P":"Placebo","TRT01PN":null,"TRT01A":"Placebo","SITEGR1":900,"SITEID":701,"TRTSDT":"2012-08-05","TRTEDT":"2012-09-01","ITTFL":"Y","SAFFL":"Y","EFFFL":"N","COMPLFL":"N"},{"STUDYID":"CDISCPILOT01","USUBJID":"01-701-1023","MHSEQ":15,"MHTERM":"VERBATIM_0342","MHDECOD":"VERBATIM_0342","MHBODSYS":"(uncoded - no MedDRA SOC in source)","ASTDT":null,"ASTDY":null,"TRTP":"Placebo","TRT01P":"Placebo","TRT01PN":null,"TRT01A":"Placebo","SITEGR1":900,"SITEID":701,"TRTSDT":"2012-08-05","TRTEDT":"2012-09-01","ITTFL":"Y","SAFFL":"Y","EFFFL":"N","COMPLFL":"N"},{"STUDYID":"CDISCPILOT01","USUBJID":"01-701-1023","MHSEQ":17,"MHTERM":"VERBATIM_0388","MHDECOD":"VERBATIM_0388","MHBODSYS":"(uncoded - no MedDRA SOC in source)","ASTDT":null,"ASTDY":null,"TRTP":"Placebo","TRT01P":"Placebo","TRT01PN":null,"TRT01A":"Placebo","SITEGR1":900,"SITEID":701,"TRTSDT":"2012-08-05","TRTEDT":"2012-09-01","ITTFL":"Y","SAFFL":"Y","EFFFL":"N","COMPLFL":"N"},{"STUDYID":"CDISCPILOT01","USUBJID":"01-701-1023","MHSEQ":2,"MHTERM":"VERBATIM_0461","MHDECOD":"VERBATIM_0461","MHBODSYS":"(uncoded - no MedDRA SOC in source)","ASTDT":null,"ASTDY":null,"TRTP":"Placebo","TRT01P":"Placebo","TRT01PN":null,"TRT01A":"Placebo","SITEGR1":900,"SITEID":701,"TRTSDT":"2012-08-05","TRTEDT":"2012-09-01","ITTFL":"Y","SAFFL":"Y","EFFFL":"N","COMPLFL":"N"},{"STUDYID":"CDISCPILOT01","USUBJID":"01-701-1023","MHSEQ":12,"MHTERM":"VERBATIM_0596","MHDECOD":"VERBATIM_0596","MHBODSYS":"(uncoded - no MedDRA SOC in source)","ASTDT":null,"ASTDY":null,"TRTP":"Placebo","TRT01P":"Placebo","TRT01PN":null,"TRT01A":"Placebo","SITEGR1":900,"SITEID":701,"TRTSDT":"2012-08-05","TRTEDT":"2012-09-01","ITTFL":"Y","SAFFL":"Y","EFFFL":"N","COMPLFL":"N"},{"STUDYID":"CDISCPILOT01","USUBJID":"01-701-1023","MHSEQ":3,"MHTERM":"VERBATIM_0699","MHDECOD":"VERBATIM_0699","MHBODSYS":"(uncoded - no MedDRA SOC in source)","ASTDT":null,"ASTDY":null,"TRTP":"Placebo","TRT01P":"Placebo","TRT01PN":null,"TRT01A":"Placebo","SITEGR1":900,"SITEID":701,"TRTSDT":"2012-08-05","TRTEDT":"2012-09-01","ITTFL":"Y","SAFFL":"Y","EFFFL":"N","COMPLFL":"N"},{"STUDYID":"CDISCPILOT01","USUBJID":"01-701-1023","MHSEQ":8,"MHTERM":"VERBATIM_0788","MHDECOD":"VERBATIM_0788","MHBODSYS":"(uncoded - no MedDRA SOC in source)","ASTDT":null,"ASTDY":null,"TRTP":"Placebo","TRT01P":"Placebo","TRT01PN":null,"TRT01A":"Placebo","SITEGR1":900,"SITEID":701,"TRTSDT":"2012-08-05","TRTEDT":"2012-09-01","ITTFL":"Y","SAFFL":"Y","EFFFL":"N","COMPLFL":"N"},{"STUDYID":"CDISCPILOT01","USUBJID":"01-701-1023","MHSEQ":4,"MHTERM":"VERBATIM_0800","MHDECOD":"VERBATIM_0800","MHBODSYS":"(uncoded - no MedDRA SOC in source)","ASTDT":null,"ASTDY":null,"TRTP":"Placebo","TRT01P":"Placebo","TRT01PN":null,"TRT01A":"Placebo","SITEGR1":900,"SITEID":701,"TRTSDT":"2012-08-05","TRTEDT":"2012-09-01","ITTFL":"Y","SAFFL":"Y","EFFFL":"N","COMPLFL":"N"},{"STUDYID":"CDISCPILOT01","USUBJID":"01-701-1023","MHSEQ":5,"MHTERM":"VERBATIM_0929","MHDECOD":"VERBATIM_0929","MHBODSYS":"(uncoded - no MedDRA SOC in source)","ASTDT":null,"ASTDY":null,"TRTP":"Placebo","TRT01P":"Placebo","TRT01PN":null,"TRT01A":"Placebo","SITEGR1":900,"SITEID":701,"TRTSDT":"2012-08-05","TRTEDT":"2012-09-01","ITTFL":"Y","SAFFL":"Y","EFFFL":"N","COMPLFL":"N"},{"STUDYID":"CDISCPILOT01","USUBJID":"01-701-1023","MHSEQ":10,"MHTERM":"VERBATIM_1002","MHDECOD":"VERBATIM_1002","MHBODSYS":"(uncoded - no MedDRA SOC in source)","ASTDT":null,"ASTDY":null,"TRTP":"Placebo","TRT01P":"Placebo","TRT01PN":null,"TRT01A":"Placebo","SITEGR1":900,"SITEID":701,"TRTSDT":"2012-08-05","TRTEDT":"2012-09-01","ITTFL":"Y","SAFFL":"Y","EFFFL":"N","COMPLFL":"N"},{"STUDYID":"CDISCPILOT01","USUBJID":"01-701-1023","MHSEQ":6,"MHTERM":"VERBATIM_1042","MHDECOD":"VERBATIM_1042","MHBODSYS":"(uncoded - no MedDRA SOC in source)","ASTDT":null,"ASTDY":null,"TRTP":"Placebo","TRT01P":"Placebo","TRT01PN":null,"TRT01A":"Placebo","SITEGR1":900,"SITEID":701,"TRTSDT":"2012-08-05","TRTEDT":"2012-09-01","ITTFL":"Y","SAFFL":"Y","EFFFL":"N","COMPLFL":"N"},{"STUDYID":"CDISCPILOT01","USUBJID":"01-701-1023","MHSEQ":20,"MHTERM":"VERBATIM_1154","MHDECOD":"VERBATIM_1154","MHBODSYS":"(uncoded - no MedDRA SOC in source)","ASTDT":null,"ASTDY":null,"TRTP":"Placebo","TRT01P":"Placebo","TRT01PN":null,"TRT01A":"Placebo","SITEGR1":900,"SITEID":701,"TRTSDT":"2012-08-05","TRTEDT":"2012-09-01","ITTFL":"Y","SAFFL":"Y","EFFFL":"N","COMPLFL":"N"},{"STUDYID":"CDISCPILOT01","USUBJID":"01-701-1023","MHSEQ":14,"MHTERM":"VERBATIM_1200","MHDECOD":"VERBATIM_1200","MHBODSYS":"(uncoded - no MedDRA SOC in source)","ASTDT":null,"ASTDY":null,"TRTP":"Placebo","TRT01P":"Placebo","TRT01PN":null,"TRT01A":"Placebo","SITEGR1":900,"SITEID":701,"TRTSDT":"2012-08-05","TRTEDT":"2012-09-01","ITTFL":"Y","SAFFL":"Y","EFFFL":"N","COMPLFL":"N"},{"STUDYID":"CDISCPILOT01","USUBJID":"01-701-1023","MHSEQ":22,"MHTERM":"VERBATIM_1364","MHDECOD":"VERBATIM_1364","MHBODSYS":"(uncoded - no MedDRA SOC in source)","ASTDT":null,"ASTDY":null,"TRTP":"Placebo","TRT01P":"Placebo","TRT01PN":null,"TRT01A":"Placebo","SITEGR1":900,"SITEID":701,"TRTSDT":"2012-08-05","TRTEDT":"2012-09-01","ITTFL":"Y","SAFFL":"Y","EFFFL":"N","COMPLFL":"N"},{"STUDYID":"CDISCPILOT01","USUBJID":"01-701-1023","MHSEQ":7,"MHTERM":"VERBATIM_1532","MHDECOD":"VERBATIM_1532","MHBODSYS":"(uncoded - no MedDRA SOC in source)","ASTDT":null,"ASTDY":null,"TRTP":"Placebo","TRT01P":"Placebo","TRT01PN":null,"TRT01A":"Placebo","SITEGR1":900,"SITEID":701,"TRTSDT":"2012-08-05","TRTEDT":"2012-09-01","ITTFL":"Y","SAFFL":"Y","EFFFL":"N","COMPLFL":"N"},{"STUDYID":"CDISCPILOT01","USUBJID":"01-701-1023","MHSEQ":13,"MHTERM":"VERBATIM_1554","MHDECOD":"VERBATIM_1554","MHBODSYS":"(uncoded - no MedDRA SOC in source)","ASTDT":null,"ASTDY":null,"TRTP":"Placebo","TRT01P":"Placebo","TRT01PN":null,"TRT01A":"Placebo","SITEGR1":900,"SITEID":701,"TRTSDT":"2012-08-05","TRTEDT":"2012-09-01","ITTFL":"Y","SAFFL":"Y","EFFFL":"N","COMPLFL":"N"},{"STUDYID":"CDISCPILOT01","USUBJID":"01-701-1023","MHSEQ":18,"MHTERM":"VERBATIM_1617","MHDECOD":"VERBATIM_1617","MHBODSYS":"(uncoded - no MedDRA SOC in source)","ASTDT":null,"ASTDY":null,"TRTP":"Placebo","TRT01P":"Placebo","TRT01PN":null,"TRT01A":"Placebo","SITEGR1":900,"SITEID":701,"TRTSDT":"2012-08-05","TRTEDT":"2012-09-01","ITTFL":"Y","SAFFL":"Y","EFFFL":"N","COMPLFL":"N"},{"STUDYID":"CDISCPILOT01","USUBJID":"01-701-1023","MHSEQ":11,"MHTERM":"VERBATIM_1769","MHDECOD":"VERBATIM_1769","MHBODSYS":"(uncoded - no MedDRA SOC in source)","ASTDT":null,"ASTDY":null,"TRTP":"Placebo","TRT01P":"Placebo","TRT01PN":null,"TRT01A":"Placebo","SITEGR1":900,"SITEID":701,"TRTSDT":"2012-08-05","TRTEDT":"2012-09-01","ITTFL":"Y","SAFFL":"Y","EFFFL":"N","COMPLFL":"N"},{"STUDYID":"CDISCPILOT01","USUBJID":"01-701-1023","MHSEQ":9,"MHTERM":"VERBATIM_1775","MHDECOD":"VERBATIM_1775","MHBODSYS":"(uncoded - no MedDRA SOC in source)","ASTDT":null,"ASTDY":null,"TRTP":"Placebo","TRT01P":"Placebo","TRT01PN":null,"TRT01A":"Placebo","SITEGR1":900,"SITEID":701,"TRTSDT":"2012-08-05","TRTEDT":"2012-09-01","ITTFL":"Y","SAFFL":"Y","EFFFL":"N","COMPLFL":"N"},{"STUDYID":"CDISCPILOT01","USUBJID":"01-701-1028","MHSEQ":6,"MHTERM":"ALZHEIMER'S DISEASE","MHDECOD":"ALZHEIMER'S DISEASE","MHBODSYS":"(uncoded - no MedDRA SOC in source)","ASTDT":"2009-12-16","ASTDY":null,"TRTP":"Xanomeline High Dose","TRT01P":"Xanomeline High Dose","TRT01PN":null,"TRT01A":"Xanomeline High Dose","SITEGR1":900,"SITEID":701,"TRTSDT":"2013-07-19","TRTEDT":"2014-01-14","ITTFL":"Y","SAFFL":"Y","EFFFL":"N","COMPLFL":"Y"},{"STUDYID":"CDISCPILOT01","USUBJID":"01-701-1028","MHSEQ":1,"MHTERM":"VERBATIM_0428","MHDECOD":"VERBATIM_0428","MHBODSYS":"(uncoded - no MedDRA SOC in source)","ASTDT":null,"ASTDY":null,"TRTP":"Xanomeline High Dose","TRT01P":"Xanomeline High Dose","TRT01PN":null,"TRT01A":"Xanomeline High Dose","SITEGR1":900,"SITEID":701,"TRTSDT":"2013-07-19","TRTEDT":"2014-01-14","ITTFL":"Y","SAFFL":"Y","EFFFL":"N","COMPLFL":"Y"},{"STUDYID":"CDISCPILOT01","USUBJID":"01-701-1028","MHSEQ":2,"MHTERM":"VERBATIM_0507","MHDECOD":"VERBATIM_0507","MHBODSYS":"(uncoded - no MedDRA SOC in source)","ASTDT":null,"ASTDY":null,"TRTP":"Xanomeline High Dose","TRT01P":"Xanomeline High Dose","TRT01PN":null,"TRT01A":"Xanomeline High Dose","SITEGR1":900,"SITEID":701,"TRTSDT":"2013-07-19","TRTEDT":"2014-01-14","ITTFL":"Y","SAFFL":"Y","EFFFL":"N","COMPLFL":"Y"},{"STUDYID":"CDISCPILOT01","USUBJID":"01-701-1028","MHSEQ":5,"MHTERM":"VERBATIM_1006","MHDECOD":"VERBATIM_1006","MHBODSYS":"(uncoded - no MedDRA SOC in source)","ASTDT":null,"ASTDY":null,"TRTP":"Xanomeline High Dose","TRT01P":"Xanomeline High Dose","TRT01PN":null,"TRT01A":"Xanomeline High Dose","SITEGR1":900,"SITEID":701,"TRTSDT":"2013-07-19","TRTEDT":"2014-01-14","ITTFL":"Y","SAFFL":"Y","EFFFL":"N","COMPLFL":"Y"},{"STUDYID":"CDISCPILOT01","USUBJID":"01-701-1028","MHSEQ":3,"MHTERM":"VERBATIM_1686","MHDECOD":"VERBATIM_1686","MHBODSYS":"(uncoded - no MedDRA SOC in source)","ASTDT":null,"ASTDY":null,"TRTP":"Xanomeline High Dose","TRT01P":"Xanomeline High Dose","TRT01PN":null,"TRT01A":"Xanomeline High Dose","SITEGR1":900,"SITEID":701,"TRTSDT":"2013-07-19","TRTEDT":"2014-01-14","ITTFL":"Y","SAFFL":"Y","EFFFL":"N","COMPLFL":"Y"},{"STUDYID":"CDISCPILOT01","USUBJID":"01-701-1028","MHSEQ":4,"MHTERM":"VERBATIM_1775","MHDECOD":"VERBATIM_1775","MHBODSYS":"(uncoded - no MedDRA SOC in source)","ASTDT":null,"ASTDY":null,"TRTP":"Xanomeline High Dose","TRT01P":"Xanomeline High Dose","TRT01PN":null,"TRT01A":"Xanomeline High Dose","SITEGR1":900,"SITEID":701,"TRTSDT":"2013-07-19","TRTEDT":"2014-01-14","ITTFL":"Y","SAFFL":"Y","EFFFL":"N","COMPLFL":"Y"},{"STUDYID":"CDISCPILOT01","USUBJID":"01-701-1033","MHSEQ":26,"MHTERM":"ALZHEIMER'S DISEASE","MHDECOD":"ALZHEIMER'S DISEASE","MHBODSYS":"(uncoded - no MedDRA SOC in source)","ASTDT":"2009-08-02","ASTDY":null,"TRTP":"Xanomeline Low Dose","TRT01P":"Xanomeline Low Dose","TRT01PN":null,"TRT01A":"Xanomeline Low Dose","SITEGR1":900,"SITEID":701,"TRTSDT":"2014-03-18","TRTEDT":"2014-03-31","ITTFL":"Y","SAFFL":"Y","EFFFL":"N","COMPLFL":"N"},{"STUDYID":"CDISCPILOT01","USUBJID":"01-701-1033","MHSEQ":19,"MHTERM":"VERBATIM_0116","MHDECOD":"VERBATIM_0116","MHBODSYS":"(uncoded - no MedDRA SOC in source)","ASTDT":null,"ASTDY":null,"TRTP":"Xanomeline Low Dose","TRT01P":"Xanomeline Low Dose","TRT01PN":null,"TRT01A":"Xanomeline Low Dose","SITEGR1":900,"SITEID":701,"TRTSDT":"2014-03-18","TRTEDT":"2014-03-31","ITTFL":"Y","SAFFL":"Y","EFFFL":"N","COMPLFL":"N"},{"STUDYID":"CDISCPILOT01","USUBJID":"01-701-1033","MHSEQ":1,"MHTERM":"VERBATIM_0138","MHDECOD":"VERBATIM_0138","MHBODSYS":"(uncoded - no MedDRA SOC in source)","ASTDT":null,"ASTDY":null,"TRTP":"Xanomeline Low Dose","TRT01P":"Xanomeline Low Dose","TRT01PN":null,"TRT01A":"Xanomeline Low Dose","SITEGR1":900,"SITEID":701,"TRTSDT":"2014-03-18","TRTEDT":"2014-03-31","ITTFL":"Y","SAFFL":"Y","EFFFL":"N","COMPLFL":"N"},{"STUDYID":"CDISCPILOT01","USUBJID":"01-701-1033","MHSEQ":2,"MHTERM":"VERBATIM_0165","MHDECOD":"VERBATIM_0165","MHBODSYS":"(uncoded - no MedDRA SOC in source)","ASTDT":null,"ASTDY":null,"TRTP":"Xanomeline Low Dose","TRT01P":"Xanomeline Low Dose","TRT01PN":null,"TRT01A":"Xanomeline Low Dose","SITEGR1":900,"SITEID":701,"TRTSDT":"2014-03-18","TRTEDT":"2014-03-31","ITTFL":"Y","SAFFL":"Y","EFFFL":"N","COMPLFL":"N"},{"STUDYID":"CDISCPILOT01","USUBJID":"01-701-1033","MHSEQ":14,"MHTERM":"VERBATIM_0201","MHDECOD":"VERBATIM_0201","MHBODSYS":"(uncoded - no MedDRA SOC in source)","ASTDT":null,"ASTDY":null,"TRTP":"Xanomeline Low Dose","TRT01P":"Xanomeline Low Dose","TRT01PN":null,"TRT01A":"Xanomeline Low Dose","SITEGR1":900,"SITEID":701,"TRTSDT":"2014-03-18","TRTEDT":"2014-03-31","ITTFL":"Y","SAFFL":"Y","EFFFL":"N","COMPLFL":"N"},{"STUDYID":"CDISCPILOT01","USUBJID":"01-701-1033","MHSEQ":15,"MHTERM":"VERBATIM_0429","MHDECOD":"VERBATIM_0429","MHBODSYS":"(uncoded - no MedDRA SOC in source)","ASTDT":null,"ASTDY":null,"TRTP":"Xanomeline Low Dose","TRT01P":"Xanomeline Low Dose","TRT01PN":null,"TRT01A":"Xanomeline Low Dose","SITEGR1":900,"SITEID":701,"TRTSDT":"2014-03-18","TRTEDT":"2014-03-31","ITTFL":"Y","SAFFL":"Y","EFFFL":"N","COMPLFL":"N"},{"STUDYID":"CDISCPILOT01","USUBJID":"01-701-1033","MHSEQ":16,"MHTERM":"VERBATIM_0581","MHDECOD":"VERBATIM_0581","MHBODSYS":"(uncoded - no MedDRA SOC in source)","ASTDT":null,"ASTDY":null,"TRTP":"Xanomeline Low Dose","TRT01P":"Xanomeline Low Dose","TRT01PN":null,"TRT01A":"Xanomeline Low Dose","SITEGR1":900,"SITEID":701,"TRTSDT":"2014-03-18","TRTEDT":"2014-03-31","ITTFL":"Y","SAFFL":"Y","EFFFL":"N","COMPLFL":"N"},{"STUDYID":"CDISCPILOT01","USUBJID":"01-701-1033","MHSEQ":3,"MHTERM":"VERBATIM_0672","MHDECOD":"VERBATIM_0672","MHBODSYS":"(uncoded - no MedDRA SOC in source)","ASTDT":null,"ASTDY":null,"TRTP":"Xanomeline Low Dose","TRT01P":"Xanomeline Low Dose","TRT01PN":null,"TRT01A":"Xanomeline Low Dose","SITEGR1":900,"SITEID":701,"TRTSDT":"2014-03-18","TRTEDT":"2014-03-31","ITTFL":"Y","SAFFL":"Y","EFFFL":"N","COMPLFL":"N"},{"STUDYID":"CDISCPILOT01","USUBJID":"01-701-1033","MHSEQ":4,"MHTERM":"VERBATIM_0746","MHDECOD":"VERBATIM_0746","MHBODSYS":"(uncoded - no MedDRA SOC in source)","ASTDT":null,"ASTDY":null,"TRTP":"Xanomeline Low Dose","TRT01P":"Xanomeline Low Dose","TRT01PN":null,"TRT01A":"Xanomeline Low Dose","SITEGR1":900,"SITEID":701,"TRTSDT":"2014-03-18","TRTEDT":"2014-03-31","ITTFL":"Y","SAFFL":"Y","EFFFL":"N","COMPLFL":"N"},{"STUDYID":"CDISCPILOT01","USUBJID":"01-701-1033","MHSEQ":17,"MHTERM":"VERBATIM_0752","MHDECOD":"VERBATIM_0752","MHBODSYS":"(uncoded - no MedDRA SOC in source)","ASTDT":null,"ASTDY":null,"TRTP":"Xanomeline Low Dose","TRT01P":"Xanomeline Low Dose","TRT01PN":null,"TRT01A":"Xanomeline Low Dose","SITEGR1":900,"SITEID":701,"TRTSDT":"2014-03-18","TRTEDT":"2014-03-31","ITTFL":"Y","SAFFL":"Y","EFFFL":"N","COMPLFL":"N"},{"STUDYID":"CDISCPILOT01","USUBJID":"01-701-1033","MHSEQ":24,"MHTERM":"VERBATIM_0816","MHDECOD":"VERBATIM_0816","MHBODSYS":"(uncoded - no MedDRA SOC in source)","ASTDT":null,"ASTDY":null,"TRTP":"Xanomeline Low Dose","TRT01P":"Xanomeline Low Dose","TRT01PN":null,"TRT01A":"Xanomeline Low Dose","SITEGR1":900,"SITEID":701,"TRTSDT":"2014-03-18","TRTEDT":"2014-03-31","ITTFL":"Y","SAFFL":"Y","EFFFL":"N","COMPLFL":"N"},{"STUDYID":"CDISCPILOT01","USUBJID":"01-701-1033","MHSEQ":5,"MHTERM":"VERBATIM_0858","MHDECOD":"VERBATIM_0858","MHBODSYS":"(uncoded - no MedDRA SOC in source)","ASTDT":null,"ASTDY":null,"TRTP":"Xanomeline Low Dose","TRT01P":"Xanomeline Low Dose","TRT01PN":null,"TRT01A":"Xanomeline Low Dose","SITEGR1":900,"SITEID":701,"TRTSDT":"2014-03-18","TRTEDT":"2014-03-31","ITTFL":"Y","SAFFL":"Y","EFFFL":"N","COMPLFL":"N"},{"STUDYID":"CDISCPILOT01","USUBJID":"01-701-1033","MHSEQ":11,"MHTERM":"VERBATIM_0868","MHDECOD":"VERBATIM_0868","MHBODSYS":"(uncoded - no MedDRA SOC in source)","ASTDT":null,"ASTDY":null,"TRTP":"Xanomeline Low Dose","TRT01P":"Xanomeline Low Dose","TRT01PN":null,"TRT01A":"Xanomeline Low Dose","SITEGR1":900,"SITEID":701,"TRTSDT":"2014-03-18","TRTEDT":"2014-03-31","ITTFL":"Y","SAFFL":"Y","EFFFL":"N","COMPLFL":"N"},{"STUDYID":"CDISCPILOT01","USUBJID":"01-701-1033","MHSEQ":21,"MHTERM":"VERBATIM_0870","MHDECOD":"VERBATIM_0870","MHBODSYS":"(uncoded - no MedDRA SOC in source)","ASTDT":null,"ASTDY":null,"TRTP":"Xanomeline Low Dose","TRT01P":"Xanomeline Low Dose","TRT01PN":null,"TRT01A":"Xanomeline Low Dose","SITEGR1":900,"SITEID":701,"TRTSDT":"2014-03-18","TRTEDT":"2014-03-31","ITTFL":"Y","SAFFL":"Y","EFFFL":"N","COMPLFL":"N"},{"STUDYID":"CDISCPILOT01","USUBJID":"01-701-1033","MHSEQ":18,"MHTERM":"VERBATIM_0991","MHDECOD":"VERBATIM_0991","MHBODSYS":"(uncoded - no MedDRA SOC in source)","ASTDT":null,"ASTDY":null,"TRTP":"Xanomeline Low Dose","TRT01P":"Xanomeline Low Dose","TRT01PN":null,"TRT01A":"Xanomeline Low Dose","SITEGR1":900,"SITEID":701,"TRTSDT":"2014-03-18","TRTEDT":"2014-03-31","ITTFL":"Y","SAFFL":"Y","EFFFL":"N","COMPLFL":"N"},{"STUDYID":"CDISCPILOT01","USUBJID":"01-701-1033","MHSEQ":22,"MHTERM":"VERBATIM_1156","MHDECOD":"VERBATIM_1156","MHBODSYS":"(uncoded - no MedDRA SOC in source)","ASTDT":null,"ASTDY":null,"TRTP":"Xanomeline Low Dose","TRT01P":"Xanomeline Low Dose","TRT01PN":null,"TRT01A":"Xanomeline Low Dose","SITEGR1":900,"SITEID":701,"TRTSDT":"2014-03-18","TRTEDT":"2014-03-31","ITTFL":"Y","SAFFL":"Y","EFFFL":"N","COMPLFL":"N"},{"STUDYID":"CDISCPILOT01","USUBJID":"01-701-1033","MHSEQ":25,"MHTERM":"VERBATIM_1209","MHDECOD":"VERBATIM_1209","MHBODSYS":"(uncoded - no MedDRA SOC in source)","ASTDT":null,"ASTDY":null,"TRTP":"Xanomeline Low Dose","TRT01P":"Xanomeline Low Dose","TRT01PN":null,"TRT01A":"Xanomeline Low Dose","SITEGR1":900,"SITEID":701,"TRTSDT":"2014-03-18","TRTEDT":"2014-03-31","ITTFL":"Y","SAFFL":"Y","EFFFL":"N","COMPLFL":"N"},{"STUDYID":"CDISCPILOT01","USUBJID":"01-701-1033","MHSEQ":6,"MHTERM":"VERBATIM_1421","MHDECOD":"VERBATIM_1421","MHBODSYS":"(uncoded - no MedDRA SOC in source)","ASTDT":null,"ASTDY":null,"TRTP":"Xanomeline Low Dose","TRT01P":"Xanomeline Low Dose","TRT01PN":null,"TRT01A":"Xanomeline Low Dose","SITEGR1":900,"SITEID":701,"TRTSDT":"2014-03-18","TRTEDT":"2014-03-31","ITTFL":"Y","SAFFL":"Y","EFFFL":"N","COMPLFL":"N"},{"STUDYID":"CDISCPILOT01","USUBJID":"01-701-1033","MHSEQ":13,"MHTERM":"VERBATIM_1425","MHDECOD":"VERBATIM_1425","MHBODSYS":"(uncoded - no MedDRA SOC in source)","ASTDT":null,"ASTDY":null,"TRTP":"Xanomeline Low Dose","TRT01P":"Xanomeline Low Dose","TRT01PN":null,"TRT01A":"Xanomeline Low Dose","SITEGR1":900,"SITEID":701,"TRTSDT":"2014-03-18","TRTEDT":"2014-03-31","ITTFL":"Y","SAFFL":"Y","EFFFL":"N","COMPLFL":"N"},{"STUDYID":"CDISCPILOT01","USUBJID":"01-701-1033","MHSEQ":23,"MHTERM":"VERBATIM_1457","MHDECOD":"VERBATIM_1457","MHBODSYS":"(uncoded - no MedDRA SOC in source)","ASTDT":null,"ASTDY":null,"TRTP":"Xanomeline Low Dose","TRT01P":"Xanomeline Low Dose","TRT01PN":null,"TRT01A":"Xanomeline Low Dose","SITEGR1":900,"SITEID":701,"TRTSDT":"2014-03-18","TRTEDT":"2014-03-31","ITTFL":"Y","SAFFL":"Y","EFFFL":"N","COMPLFL":"N"},{"STUDYID":"CDISCPILOT01","USUBJID":"01-701-1033","MHSEQ":7,"MHTERM":"VERBATIM_1532","MHDECOD":"VERBATIM_1532","MHBODSYS":"(uncoded - no MedDRA SOC in source)","ASTDT":null,"ASTDY":null,"TRTP":"Xanomeline Low Dose","TRT01P":"Xanomeline Low Dose","TRT01PN":null,"TRT01A":"Xanomeline Low Dose","SITEGR1":900,"SITEID":701,"TRTSDT":"2014-03-18","TRTEDT":"2014-03-31","ITTFL":"Y","SAFFL":"Y","EFFFL":"N","COMPLFL":"N"},{"STUDYID":"CDISCPILOT01","USUBJID":"01-701-1033","MHSEQ":12,"MHTERM":"VERBATIM_1594","MHDECOD":"VERBATIM_1594","MHBODSYS":"(uncoded - no MedDRA SOC in source)","ASTDT":null,"ASTDY":null,"TRTP":"Xanomeline Low Dose","TRT01P":"Xanomeline Low Dose","TRT01PN":null,"TRT01A":"Xanomeline Low Dose","SITEGR1":900,"SITEID":701,"TRTSDT":"2014-03-18","TRTEDT":"2014-03-31","ITTFL":"Y","SAFFL":"Y","EFFFL":"N","COMPLFL":"N"},{"STUDYID":"CDISCPILOT01","USUBJID":"01-701-1033","MHSEQ":8,"MHTERM":"VERBATIM_1612","MHDECOD":"VERBATIM_1612","MHBODSYS":"(uncoded - no MedDRA SOC in source)","ASTDT":null,"ASTDY":null,"TRTP":"Xanomeline Low Dose","TRT01P":"Xanomeline Low Dose","TRT01PN":null,"TRT01A":"Xanomeline Low Dose","SITEGR1":900,"SITEID":701,"TRTSDT":"2014-03-18","TRTEDT":"2014-03-31","ITTFL":"Y","SAFFL":"Y","EFFFL":"N","COMPLFL":"N"},{"STUDYID":"CDISCPILOT01","USUBJID":"01-701-1033","MHSEQ":9,"MHTERM":"VERBATIM_1653","MHDECOD":"VERBATIM_1653","MHBODSYS":"(uncoded - no MedDRA SOC in source)","ASTDT":null,"ASTDY":null,"TRTP":"Xanomeline Low Dose","TRT01P":"Xanomeline Low Dose","TRT01PN":null,"TRT01A":"Xanomeline Low Dose","SITEGR1":900,"SITEID":701,"TRTSDT":"2014-03-18","TRTEDT":"2014-03-31","ITTFL":"Y","SAFFL":"Y","EFFFL":"N","COMPLFL":"N"},{"STUDYID":"CDISCPILOT01","USUBJID":"01-701-1033","MHSEQ":10,"MHTERM":"VERBATIM_1716","MHDECOD":"VERBATIM_1716","MHBODSYS":"(uncoded - no MedDRA SOC in source)","ASTDT":null,"ASTDY":null,"TRTP":"Xanomeline Low Dose","TRT01P":"Xanomeline Low Dose","TRT01PN":null,"TRT01A":"Xanomeline Low Dose","SITEGR1":900,"SITEID":701,"TRTSDT":"2014-03-18","TRTEDT":"2014-03-31","ITTFL":"Y","SAFFL":"Y","EFFFL":"N","COMPLFL":"N"},{"STUDYID":"CDISCPILOT01","USUBJID":"01-701-1033","MHSEQ":20,"MHTERM":"VERBATIM_1756","MHDECOD":"VERBATIM_1756","MHBODSYS":"(uncoded - no MedDRA SOC in source)","ASTDT":null,"ASTDY":null,"TRTP":"Xanomeline Low Dose","TRT01P":"Xanomeline Low Dose","TRT01PN":null,"TRT01A":"Xanomeline Low Dose","SITEGR1":900,"SITEID":701,"TRTSDT":"2014-03-18","TRTEDT":"2014-03-31","ITTFL":"Y","SAFFL":"Y","EFFFL":"N","COMPLFL":"N"},{"STUDYID":"CDISCPILOT01","USUBJID":"01-701-1034","MHSEQ":13,"MHTERM":"ALZHEIMER'S DISEASE","MHDECOD":"ALZHEIMER'S DISEASE","MHBODSYS":"(uncoded - no MedDRA SOC in source)","ASTDT":"2011-09-29","ASTDY":null,"TRTP":"Xanomeline High Dose","TRT01P":"Xanomeline High Dose","TRT01PN":null,"TRT01A":"Xanomeline High Dose","SITEGR1":900,"SITEID":701,"TRTSDT":"2014-07-01","TRTEDT":"2014-12-30","ITTFL":"Y","SAFFL":"Y","EFFFL":"N","COMPLFL":"Y"},{"STUDYID":"CDISCPILOT01","USUBJID":"01-701-1034","MHSEQ":14,"MHTERM":"VERBATIM_0122","MHDECOD":"VERBATIM_0122","MHBODSYS":"(uncoded - no MedDRA SOC in source)","ASTDT":null,"ASTDY":null,"TRTP":"Xanomeline High Dose","TRT01P":"Xanomeline High Dose","TRT01PN":null,"TRT01A":"Xanomeline High Dose","SITEGR1":900,"SITEID":701,"TRTSDT":"2014-07-01","TRTEDT":"2014-12-30","ITTFL":"Y","SAFFL":"Y","EFFFL":"N","COMPLFL":"Y"},{"STUDYID":"CDISCPILOT01","USUBJID":"01-701-1034","MHSEQ":1,"MHTERM":"VERBATIM_0443","MHDECOD":"VERBATIM_0443","MHBODSYS":"(uncoded - no MedDRA SOC in source)","ASTDT":null,"ASTDY":null,"TRTP":"Xanomeline High Dose","TRT01P":"Xanomeline High Dose","TRT01PN":null,"TRT01A":"Xanomeline High Dose","SITEGR1":900,"SITEID":701,"TRTSDT":"2014-07-01","TRTEDT":"2014-12-30","ITTFL":"Y","SAFFL":"Y","EFFFL":"N","COMPLFL":"Y"},{"STUDYID":"CDISCPILOT01","USUBJID":"01-701-1034","MHSEQ":2,"MHTERM":"VERBATIM_0692","MHDECOD":"VERBATIM_0692","MHBODSYS":"(uncoded - no MedDRA SOC in source)","ASTDT":null,"ASTDY":null,"TRTP":"Xanomeline High Dose","TRT01P":"Xanomeline High Dose","TRT01PN":null,"TRT01A":"Xanomeline High Dose","SITEGR1":900,"SITEID":701,"TRTSDT":"2014-07-01","TRTEDT":"2014-12-30","ITTFL":"Y","SAFFL":"Y","EFFFL":"N","COMPLFL":"Y"},{"STUDYID":"CDISCPILOT01","USUBJID":"01-701-1034","MHSEQ":3,"MHTERM":"VERBATIM_0753","MHDECOD":"VERBATIM_0753","MHBODSYS":"(uncoded - no MedDRA SOC in source)","ASTDT":null,"ASTDY":null,"TRTP":"Xanomeline High Dose","TRT01P":"Xanomeline High Dose","TRT01PN":null,"TRT01A":"Xanomeline High Dose","SITEGR1":900,"SITEID":701,"TRTSDT":"2014-07-01","TRTEDT":"2014-12-30","ITTFL":"Y","SAFFL":"Y","EFFFL":"N","COMPLFL":"Y"},{"STUDYID":"CDISCPILOT01","USUBJID":"01-701-1034","MHSEQ":4,"MHTERM":"VERBATIM_0763","MHDECOD":"VERBATIM_0763","MHBODSYS":"(uncoded - no MedDRA SOC in source)","ASTDT":null,"ASTDY":null,"TRTP":"Xanomeline High Dose","TRT01P":"Xanomeline High Dose","TRT01PN":null,"TRT01A":"Xanomeline High Dose","SITEGR1":900,"SITEID":701,"TRTSDT":"2014-07-01","TRTEDT":"2014-12-30","ITTFL":"Y","SAFFL":"Y","EFFFL":"N","COMPLFL":"Y"},{"STUDYID":"CDISCPILOT01","USUBJID":"01-701-1034","MHSEQ":9,"MHTERM":"VERBATIM_0936","MHDECOD":"VERBATIM_0936","MHBODSYS":"(uncoded - no MedDRA SOC in source)","ASTDT":null,"ASTDY":null,"TRTP":"Xanomeline High Dose","TRT01P":"Xanomeline High Dose","TRT01PN":null,"TRT01A":"Xanomeline High Dose","SITEGR1":900,"SITEID":701,"TRTSDT":"2014-07-01","TRTEDT":"2014-12-30","ITTFL":"Y","SAFFL":"Y","EFFFL":"N","COMPLFL":"Y"},{"STUDYID":"CDISCPILOT01","USUBJID":"01-701-1034","MHSEQ":15,"MHTERM":"VERBATIM_0973","MHDECOD":"VERBATIM_0973","MHBODSYS":"(uncoded - no MedDRA SOC in source)","ASTDT":"2013-12-21","ASTDY":null,"TRTP":"Xanomeline High Dose","TRT01P":"Xanomeline High Dose","TRT01PN":null,"TRT01A":"Xanomeline High Dose","SITEGR1":900,"SITEID":701,"TRTSDT":"2014-07-01","TRTEDT":"2014-12-30","ITTFL":"Y","SAFFL":"Y","EFFFL":"N","COMPLFL":"Y"},{"STUDYID":"CDISCPILOT01","USUBJID":"01-701-1034","MHSEQ":11,"MHTERM":"VERBATIM_1132","MHDECOD":"VERBATIM_1132","MHBODSYS":"(uncoded - no MedDRA SOC in source)","ASTDT":null,"ASTDY":null,"TRTP":"Xanomeline High Dose","TRT01P":"Xanomeline High Dose","TRT01PN":null,"TRT01A":"Xanomeline High Dose","SITEGR1":900,"SITEID":701,"TRTSDT":"2014-07-01","TRTEDT":"2014-12-30","ITTFL":"Y","SAFFL":"Y","EFFFL":"N","COMPLFL":"Y"},{"STUDYID":"CDISCPILOT01","USUBJID":"01-701-1034","MHSEQ":10,"MHTERM":"VERBATIM_1133","MHDECOD":"VERBATIM_1133","MHBODSYS":"(uncoded - no MedDRA SOC in source)","ASTDT":null,"ASTDY":null,"TRTP":"Xanomeline High Dose","TRT01P":"Xanomeline High Dose","TRT01PN":null,"TRT01A":"Xanomeline High Dose","SITEGR1":900,"SITEID":701,"TRTSDT":"2014-07-01","TRTEDT":"2014-12-30","ITTFL":"Y","SAFFL":"Y","EFFFL":"N","COMPLFL":"Y"},{"STUDYID":"CDISCPILOT01","USUBJID":"01-701-1034","MHSEQ":12,"MHTERM":"VERBATIM_1162","MHDECOD":"VERBATIM_1162","MHBODSYS":"(uncoded - no MedDRA SOC in source)","ASTDT":"2011-08-21","ASTDY":null,"TRTP":"Xanomeline High Dose","TRT01P":"Xanomeline High Dose","TRT01PN":null,"TRT01A":"Xanomeline High Dose","SITEGR1":900,"SITEID":701,"TRTSDT":"2014-07-01","TRTEDT":"2014-12-30","ITTFL":"Y","SAFFL":"Y","EFFFL":"N","COMPLFL":"Y"},{"STUDYID":"CDISCPILOT01","USUBJID":"01-701-1034","MHSEQ":5,"MHTERM":"VERBATIM_1385","MHDECOD":"VERBATIM_1385","MHBODSYS":"(uncoded - no MedDRA SOC in source)","ASTDT":null,"ASTDY":null,"TRTP":"Xanomeline High Dose","TRT01P":"Xanomeline High Dose","TRT01PN":null,"TRT01A":"Xanomeline High Dose","SITEGR1":900,"SITEID":701,"TRTSDT":"2014-07-01","TRTEDT":"2014-12-30","ITTFL":"Y","SAFFL":"Y","EFFFL":"N","COMPLFL":"Y"},{"STUDYID":"CDISCPILOT01","USUBJID":"01-701-1034","MHSEQ":16,"MHTERM":"VERBATIM_1680","MHDECOD":"VERBATIM_1680","MHBODSYS":"(uncoded - no MedDRA SOC in source)","ASTDT":"2014-06-11","ASTDY":null,"TRTP":"Xanomeline High Dose","TRT01P":"Xanomeline High Dose","TRT01PN":null,"TRT01A":"Xanomeline High Dose","SITEGR1":900,"SITEID":701,"TRTSDT":"2014-07-01","TRTEDT":"2014-12-30","ITTFL":"Y","SAFFL":"Y","EFFFL":"N","COMPLFL":"Y"},{"STUDYID":"CDISCPILOT01","USUBJID":"01-701-1034","MHSEQ":6,"MHTERM":"VERBATIM_1683","MHDECOD":"VERBATIM_1683","MHBODSYS":"(uncoded - no MedDRA SOC in source)","ASTDT":null,"ASTDY":null,"TRTP":"Xanomeline High Dose","TRT01P":"Xanomeline High Dose","TRT01PN":null,"TRT01A":"Xanomeline High Dose","SITEGR1":900,"SITEID":701,"TRTSDT":"2014-07-01","TRTEDT":"2014-12-30","ITTFL":"Y","SAFFL":"Y","EFFFL":"N","COMPLFL":"Y"},{"STUDYID":"CDISCPILOT01","USUBJID":"01-701-1034","MHSEQ":7,"MHTERM":"VERBATIM_1716","MHDECOD":"VERBATIM_1716","MHBODSYS":"(uncoded - no MedDRA SOC in source)","ASTDT":null,"ASTDY":null,"TRTP":"Xanomeline High Dose","TRT01P":"Xanomeline High Dose","TRT01PN":null,"TRT01A":"Xanomeline High Dose","SITEGR1":900,"SITEID":701,"TRTSDT":"2014-07-01","TRTEDT":"2014-12-30","ITTFL":"Y","SAFFL":"Y","EFFFL":"N","COMPLFL":"Y"},{"STUDYID":"CDISCPILOT01","USUBJID":"01-701-1034","MHSEQ":8,"MHTERM":"VERBATIM_1775","MHDECOD":"VERBATIM_1775","MHBODSYS":"(uncoded - no MedDRA SOC in source)","ASTDT":null,"ASTDY":null,"TRTP":"Xanomeline High Dose","TRT01P":"Xanomeline High Dose","TRT01PN":null,"TRT01A":"Xanomeline High Dose","SITEGR1":900,"SITEID":701,"TRTSDT":"2014-07-01","TRTEDT":"2014-12-30","ITTFL":"Y","SAFFL":"Y","EFFFL":"N","COMPLFL":"Y"},{"STUDYID":"CDISCPILOT01","USUBJID":"01-701-1047","MHSEQ":14,"MHTERM":"ALZHEIMER'S DISEASE","MHDECOD":"ALZHEIMER'S DISEASE","MHBODSYS":"(uncoded - no MedDRA SOC in source)","ASTDT":"2009-07-26","ASTDY":null,"TRTP":"Placebo","TRT01P":"Placebo","TRT01PN":null,"TRT01A":"Placebo","SITEGR1":900,"SITEID":701,"TRTSDT":"2013-02-12","TRTEDT":"2013-03-09","ITTFL":"Y","SAFFL":"Y","EFFFL":"N","COMPLFL":"N"},{"STUDYID":"CDISCPILOT01","USUBJID":"01-701-1047","MHSEQ":1,"MHTERM":"VERBATIM_0253","MHDECOD":"VERBATIM_0253","MHBODSYS":"(uncoded - no MedDRA SOC in source)","ASTDT":null,"ASTDY":null,"TRTP":"Placebo","TRT01P":"Placebo","TRT01PN":null,"TRT01A":"Placebo","SITEGR1":900,"SITEID":701,"TRTSDT":"2013-02-12","TRTEDT":"2013-03-09","ITTFL":"Y","SAFFL":"Y","EFFFL":"N","COMPLFL":"N"},{"STUDYID":"CDISCPILOT01","USUBJID":"01-701-1047","MHSEQ":15,"MHTERM":"VERBATIM_0361","MHDECOD":"VERBATIM_0361","MHBODSYS":"(uncoded - no MedDRA SOC in source)","ASTDT":null,"ASTDY":null,"TRTP":"Placebo","TRT01P":"Placebo","TRT01PN":null,"TRT01A":"Placebo","SITEGR1":900,"SITEID":701,"TRTSDT":"2013-02-12","TRTEDT":"2013-03-09","ITTFL":"Y","SAFFL":"Y","EFFFL":"N","COMPLFL":"N"},{"STUDYID":"CDISCPILOT01","USUBJID":"01-701-1047","MHSEQ":12,"MHTERM":"VERBATIM_0514","MHDECOD":"VERBATIM_0514","MHBODSYS":"(uncoded - no MedDRA SOC in source)","ASTDT":null,"ASTDY":null,"TRTP":"Placebo","TRT01P":"Placebo","TRT01PN":null,"TRT01A":"Placebo","SITEGR1":900,"SITEID":701,"TRTSDT":"2013-02-12","TRTEDT":"2013-03-09","ITTFL":"Y","SAFFL":"Y","EFFFL":"N","COMPLFL":"N"},{"STUDYID":"CDISCPILOT01","USUBJID":"01-701-1047","MHSEQ":2,"MHTERM":"VERBATIM_0538","MHDECOD":"VERBATIM_0538","MHBODSYS":"(uncoded - no MedDRA SOC in source)","ASTDT":null,"ASTDY":null,"TRTP":"Placebo","TRT01P":"Placebo","TRT01PN":null,"TRT01A":"Placebo","SITEGR1":900,"SITEID":701,"TRTSDT":"2013-02-12","TRTEDT":"2013-03-09","ITTFL":"Y","SAFFL":"Y","EFFFL":"N","COMPLFL":"N"},{"STUDYID":"CDISCPILOT01","USUBJID":"01-701-1047","MHSEQ":16,"MHTERM":"VERBATIM_0675","MHDECOD":"VERBATIM_0675","MHBODSYS":"(uncoded - no MedDRA SOC in source)","ASTDT":null,"ASTDY":null,"TRTP":"Placebo","TRT01P":"Placebo","TRT01PN":null,"TRT01A":"Placebo","SITEGR1":900,"SITEID":701,"TRTSDT":"2013-02-12","TRTEDT":"2013-03-09","ITTFL":"Y","SAFFL":"Y","EFFFL":"N","COMPLFL":"N"},{"STUDYID":"CDISCPILOT01","USUBJID":"01-701-1047","MHSEQ":3,"MHTERM":"VERBATIM_0699","MHDECOD":"VERBATIM_0699","MHBODSYS":"(uncoded - no MedDRA SOC in source)","ASTDT":null,"ASTDY":null,"TRTP":"Placebo","TRT01P":"Placebo","TRT01PN":null,"TRT01A":"Placebo","SITEGR1":900,"SITEID":701,"TRTSDT":"2013-02-12","TRTEDT":"2013-03-09","ITTFL":"Y","SAFFL":"Y","EFFFL":"N","COMPLFL":"N"},{"STUDYID":"CDISCPILOT01","USUBJID":"01-701-1047","MHSEQ":4,"MHTERM":"VERBATIM_0918","MHDECOD":"VERBATIM_0918","MHBODSYS":"(uncoded - no MedDRA SOC in source)","ASTDT":null,"ASTDY":null,"TRTP":"Placebo","TRT01P":"Placebo","TRT01PN":null,"TRT01A":"Placebo","SITEGR1":900,"SITEID":701,"TRTSDT":"2013-02-12","TRTEDT":"2013-03-09","ITTFL":"Y","SAFFL":"Y","EFFFL":"N","COMPLFL":"N"},{"STUDYID":"CDISCPILOT01","USUBJID":"01-701-1047","MHSEQ":9,"MHTERM":"VERBATIM_0936","MHDECOD":"VERBATIM_0936","MHBODSYS":"(uncoded - no MedDRA SOC in source)","ASTDT":null,"ASTDY":null,"TRTP":"Placebo","TRT01P":"Placebo","TRT01PN":null,"TRT01A":"Placebo","SITEGR1":900,"SITEID":701,"TRTSDT":"2013-02-12","TRTEDT":"2013-03-09","ITTFL":"Y","SAFFL":"Y","EFFFL":"N","COMPLFL":"N"},{"STUDYID":"CDISCPILOT01","USUBJID":"01-701-1047","MHSEQ":10,"MHTERM":"VERBATIM_1041","MHDECOD":"VERBATIM_1041","MHBODSYS":"(uncoded - no MedDRA SOC in source)","ASTDT":null,"ASTDY":null,"TRTP":"Placebo","TRT01P":"Placebo","TRT01PN":null,"TRT01A":"Placebo","SITEGR1":900,"SITEID":701,"TRTSDT":"2013-02-12","TRTEDT":"2013-03-09","ITTFL":"Y","SAFFL":"Y","EFFFL":"N","COMPLFL":"N"},{"STUDYID":"CDISCPILOT01","USUBJID":"01-701-1047","MHSEQ":5,"MHTERM":"VERBATIM_1245","MHDECOD":"VERBATIM_1245","MHBODSYS":"(uncoded - no MedDRA SOC in source)","ASTDT":null,"ASTDY":null,"TRTP":"Placebo","TRT01P":"Placebo","TRT01PN":null,"TRT01A":"Placebo","SITEGR1":900,"SITEID":701,"TRTSDT":"2013-02-12","TRTEDT":"2013-03-09","ITTFL":"Y","SAFFL":"Y","EFFFL":"N","COMPLFL":"N"},{"STUDYID":"CDISCPILOT01","USUBJID":"01-701-1047","MHSEQ":11,"MHTERM":"VERBATIM_1324","MHDECOD":"VERBATIM_1324","MHBODSYS":"(uncoded - no MedDRA SOC in source)","ASTDT":null,"ASTDY":null,"TRTP":"Placebo","TRT01P":"Placebo","TRT01PN":null,"TRT01A":"Placebo","SITEGR1":900,"SITEID":701,"TRTSDT":"2013-02-12","TRTEDT":"2013-03-09","ITTFL":"Y","SAFFL":"Y","EFFFL":"N","COMPLFL":"N"},{"STUDYID":"CDISCPILOT01","USUBJID":"01-701-1047","MHSEQ":6,"MHTERM":"VERBATIM_1512","MHDECOD":"VERBATIM_1512","MHBODSYS":"(uncoded - no MedDRA SOC in source)","ASTDT":null,"ASTDY":null,"TRTP":"Placebo","TRT01P":"Placebo","TRT01PN":null,"TRT01A":"Placebo","SITEGR1":900,"SITEID":701,"TRTSDT":"2013-02-12","TRTEDT":"2013-03-09","ITTFL":"Y","SAFFL":"Y","EFFFL":"N","COMPLFL":"N"},{"STUDYID":"CDISCPILOT01","USUBJID":"01-701-1047","MHSEQ":13,"MHTERM":"VERBATIM_1684","MHDECOD":"VERBATIM_1684","MHBODSYS":"(uncoded - no MedDRA SOC in source)","ASTDT":null,"ASTDY":null,"TRTP":"Placebo","TRT01P":"Placebo","TRT01PN":null,"TRT01A":"Placebo","SITEGR1":900,"SITEID":701,"TRTSDT":"2013-02-12","TRTEDT":"2013-03-09","ITTFL":"Y","SAFFL":"Y","EFFFL":"N","COMPLFL":"N"},{"STUDYID":"CDISCPILOT01","USUBJID":"01-701-1047","MHSEQ":8,"MHTERM":"VERBATIM_1716","MHDECOD":"VERBATIM_1716","MHBODSYS":"(uncoded - no MedDRA SOC in source)","ASTDT":null,"ASTDY":null,"TRTP":"Placebo","TRT01P":"Placebo","TRT01PN":null,"TRT01A":"Placebo","SITEGR1":900,"SITEID":701,"TRTSDT":"2013-02-12","TRTEDT":"2013-03-09","ITTFL":"Y","SAFFL":"Y","EFFFL":"N","COMPLFL":"N"},{"STUDYID":"CDISCPILOT01","USUBJID":"01-701-1047","MHSEQ":7,"MHTERM":"VERBATIM_1769","MHDECOD":"VERBATIM_1769","MHBODSYS":"(uncoded - no MedDRA SOC in source)","ASTDT":null,"ASTDY":null,"TRTP":"Placebo","TRT01P":"Placebo","TRT01PN":null,"TRT01A":"Placebo","SITEGR1":900,"SITEID":701,"TRTSDT":"2013-02-12","TRTEDT":"2013-03-09","ITTFL":"Y","SAFFL":"Y","EFFFL":"N","COMPLFL":"N"},{"STUDYID":"CDISCPILOT01","USUBJID":"01-701-1097","MHSEQ":4,"MHTERM":"ALZHEIMER'S DISEASE","MHDECOD":"ALZHEIMER'S DISEASE","MHBODSYS":"(uncoded - no MedDRA SOC in source)","ASTDT":"2005-09-22","ASTDY":null,"TRTP":"Xanomeline Low Dose","TRT01P":"Xanomeline Low Dose","TRT01PN":null,"TRT01A":"Xanomeline Low Dose","SITEGR1":900,"SITEID":701,"TRTSDT":"2014-01-01","TRTEDT":"2014-07-09","ITTFL":"Y","SAFFL":"Y","EFFFL":"N","COMPLFL":"Y"},{"STUDYID":"CDISCPILOT01","USUBJID":"01-701-1097","MHSEQ":1,"MHTERM":"VERBATIM_0507","MHDECOD":"VERBATIM_0507","MHBODSYS":"(uncoded - no MedDRA SOC in source)","ASTDT":null,"ASTDY":null,"TRTP":"Xanomeline Low Dose","TRT01P":"Xanomeline Low Dose","TRT01PN":null,"TRT01A":"Xanomeline Low Dose","SITEGR1":900,"SITEID":701,"TRTSDT":"2014-01-01","TRTEDT":"2014-07-09","ITTFL":"Y","SAFFL":"Y","EFFFL":"N","COMPLFL":"Y"},{"STUDYID":"CDISCPILOT01","USUBJID":"01-701-1097","MHSEQ":2,"MHTERM":"VERBATIM_0662","MHDECOD":"VERBATIM_0662","MHBODSYS":"(uncoded - no MedDRA SOC in source)","ASTDT":null,"ASTDY":null,"TRTP":"Xanomeline Low Dose","TRT01P":"Xanomeline Low Dose","TRT01PN":null,"TRT01A":"Xanomeline Low Dose","SITEGR1":900,"SITEID":701,"TRTSDT":"2014-01-01","TRTEDT":"2014-07-09","ITTFL":"Y","SAFFL":"Y","EFFFL":"N","COMPLFL":"Y"},{"STUDYID":"CDISCPILOT01","USUBJID":"01-701-1097","MHSEQ":5,"MHTERM":"VERBATIM_0663","MHDECOD":"VERBATIM_0663","MHBODSYS":"(uncoded - no MedDRA SOC in source)","ASTDT":null,"ASTDY":null,"TRTP":"Xanomeline Low Dose","TRT01P":"Xanomeline Low Dose","TRT01PN":null,"TRT01A":"Xanomeline Low Dose","SITEGR1":900,"SITEID":701,"TRTSDT":"2014-01-01","TRTEDT":"2014-07-09","ITTFL":"Y","SAFFL":"Y","EFFFL":"N","COMPLFL":"Y"},{"STUDYID":"CDISCPILOT01","USUBJID":"01-701-1097","MHSEQ":6,"MHTERM":"VERBATIM_0935","MHDECOD":"VERBATIM_0935","MHBODSYS":"(uncoded - no MedDRA SOC in source)","ASTDT":null,"ASTDY":null,"TRTP":"Xanomeline Low Dose","TRT01P":"Xanomeline Low Dose","TRT01PN":null,"TRT01A":"Xanomeline Low Dose","SITEGR1":900,"SITEID":701,"TRTSDT":"2014-01-01","TRTEDT":"2014-07-09","ITTFL":"Y","SAFFL":"Y","EFFFL":"N","COMPLFL":"Y"},{"STUDYID":"CDISCPILOT01","USUBJID":"01-701-1097","MHSEQ":3,"MHTERM":"VERBATIM_1769","MHDECOD":"VERBATIM_1769","MHBODSYS":"(uncoded - no MedDRA SOC in source)","ASTDT":null,"ASTDY":null,"TRTP":"Xanomeline Low Dose","TRT01P":"Xanomeline Low Dose","TRT01PN":null,"TRT01A":"Xanomeline Low Dose","SITEGR1":900,"SITEID":701,"TRTSDT":"2014-01-01","TRTEDT":"2014-07-09","ITTFL":"Y","SAFFL":"Y","EFFFL":"N","COMPLFL":"Y"},{"STUDYID":"CDISCPILOT01","USUBJID":"01-701-1111","MHSEQ":29,"MHTERM":"ALZHEIMER'S DISEASE","MHDECOD":"ALZHEIMER'S DISEASE","MHBODSYS":"(uncoded - no MedDRA SOC in source)","ASTDT":"2009-04-04","ASTDY":null,"TRTP":"Xanomeline Low Dose","TRT01P":"Xanomeline Low Dose","TRT01PN":null,"TRT01A":"Xanomeline Low Dose","SITEGR1":900,"SITEID":701,"TRTSDT":"2012-09-07","TRTEDT":"2012-09-16","ITTFL":"Y","SAFFL":"Y","EFFFL":"N","COMPLFL":"N"},{"STUDYID":"CDISCPILOT01","USUBJID":"01-701-1111","MHSEQ":18,"MHTERM":"VERBATIM_0063","MHDECOD":"VERBATIM_0063","MHBODSYS":"(uncoded - no MedDRA SOC in source)","ASTDT":null,"ASTDY":null,"TRTP":"Xanomeline Low Dose","TRT01P":"Xanomeline Low Dose","TRT01PN":null,"TRT01A":"Xanomeline Low Dose","SITEGR1":900,"SITEID":701,"TRTSDT":"2012-09-07","TRTEDT":"2012-09-16","ITTFL":"Y","SAFFL":"Y","EFFFL":"N","COMPLFL":"N"},{"STUDYID":"CDISCPILOT01","USUBJID":"01-701-1111","MHSEQ":16,"MHTERM":"VERBATIM_0250","MHDECOD":"VERBATIM_0250","MHBODSYS":"(uncoded - no MedDRA SOC in source)","ASTDT":null,"ASTDY":null,"TRTP":"Xanomeline Low Dose","TRT01P":"Xanomeline Low Dose","TRT01PN":null,"TRT01A":"Xanomeline Low Dose","SITEGR1":900,"SITEID":701,"TRTSDT":"2012-09-07","TRTEDT":"2012-09-16","ITTFL":"Y","SAFFL":"Y","EFFFL":"N","COMPLFL":"N"},{"STUDYID":"CDISCPILOT01","USUBJID":"01-701-1111","MHSEQ":17,"MHTERM":"VERBATIM_0267","MHDECOD":"VERBATIM_0267","MHBODSYS":"(uncoded - no MedDRA SOC in source)","ASTDT":null,"ASTDY":null,"TRTP":"Xanomeline Low Dose","TRT01P":"Xanomeline Low Dose","TRT01PN":null,"TRT01A":"Xanomeline Low Dose","SITEGR1":900,"SITEID":701,"TRTSDT":"2012-09-07","TRTEDT":"2012-09-16","ITTFL":"Y","SAFFL":"Y","EFFFL":"N","COMPLFL":"N"},{"STUDYID":"CDISCPILOT01","USUBJID":"01-701-1111","MHSEQ":23,"MHTERM":"VERBATIM_0361","MHDECOD":"VERBATIM_0361","MHBODSYS":"(uncoded - no MedDRA SOC in source)","ASTDT":null,"ASTDY":null,"TRTP":"Xanomeline Low Dose","TRT01P":"Xanomeline Low Dose","TRT01PN":null,"TRT01A":"Xanomeline Low Dose","SITEGR1":900,"SITEID":701,"TRTSDT":"2012-09-07","TRTEDT":"2012-09-16","ITTFL":"Y","SAFFL":"Y","EFFFL":"N","COMPLFL":"N"},{"STUDYID":"CDISCPILOT01","USUBJID":"01-701-1111","MHSEQ":15,"MHTERM":"VERBATIM_0526","MHDECOD":"VERBATIM_0526","MHBODSYS":"(uncoded - no MedDRA SOC in source)","ASTDT":null,"ASTDY":null,"TRTP":"Xanomeline Low Dose","TRT01P":"Xanomeline Low Dose","TRT01PN":null,"TRT01A":"Xanomeline Low Dose","SITEGR1":900,"SITEID":701,"TRTSDT":"2012-09-07","TRTEDT":"2012-09-16","ITTFL":"Y","SAFFL":"Y","EFFFL":"N","COMPLFL":"N"},{"STUDYID":"CDISCPILOT01","USUBJID":"01-701-1111","MHSEQ":30,"MHTERM":"VERBATIM_0543","MHDECOD":"VERBATIM_0543","MHBODSYS":"(uncoded - no MedDRA SOC in source)","ASTDT":null,"ASTDY":null,"TRTP":"Xanomeline Low Dose","TRT01P":"Xanomeline Low Dose","TRT01PN":null,"TRT01A":"Xanomeline Low Dose","SITEGR1":900,"SITEID":701,"TRTSDT":"2012-09-07","TRTEDT":"2012-09-16","ITTFL":"Y","SAFFL":"Y","EFFFL":"N","COMPLFL":"N"},{"STUDYID":"CDISCPILOT01","USUBJID":"01-701-1111","MHSEQ":1,"MHTERM":"VERBATIM_0546","MHDECOD":"VERBATIM_0546","MHBODSYS":"(uncoded - no MedDRA SOC in source)","ASTDT":null,"ASTDY":null,"TRTP":"Xanomeline Low Dose","TRT01P":"Xanomeline Low Dose","TRT01PN":null,"TRT01A":"Xanomeline Low Dose","SITEGR1":900,"SITEID":701,"TRTSDT":"2012-09-07","TRTEDT":"2012-09-16","ITTFL":"Y","SAFFL":"Y","EFFFL":"N","COMPLFL":"N"},{"STUDYID":"CDISCPILOT01","USUBJID":"01-701-1111","MHSEQ":2,"MHTERM":"VERBATIM_0699","MHDECOD":"VERBATIM_0699","MHBODSYS":"(uncoded - no MedDRA SOC in source)","ASTDT":null,"ASTDY":null,"TRTP":"Xanomeline Low Dose","TRT01P":"Xanomeline Low Dose","TRT01PN":null,"TRT01A":"Xanomeline Low Dose","SITEGR1":900,"SITEID":701,"TRTSDT":"2012-09-07","TRTEDT":"2012-09-16","ITTFL":"Y","SAFFL":"Y","EFFFL":"N","COMPLFL":"N"},{"STUDYID":"CDISCPILOT01","USUBJID":"01-701-1111","MHSEQ":28,"MHTERM":"VERBATIM_0702","MHDECOD":"VERBATIM_0702","MHBODSYS":"(uncoded - no MedDRA SOC in source)","ASTDT":null,"ASTDY":null,"TRTP":"Xanomeline Low Dose","TRT01P":"Xanomeline Low Dose","TRT01PN":null,"TRT01A":"Xanomeline Low Dose","SITEGR1":900,"SITEID":701,"TRTSDT":"2012-09-07","TRTEDT":"2012-09-16","ITTFL":"Y","SAFFL":"Y","EFFFL":"N","COMPLFL":"N"},{"STUDYID":"CDISCPILOT01","USUBJID":"01-701-1111","MHSEQ":19,"MHTERM":"VERBATIM_0740","MHDECOD":"VERBATIM_0740","MHBODSYS":"(uncoded - no MedDRA SOC in source)","ASTDT":null,"ASTDY":null,"TRTP":"Xanomeline Low Dose","TRT01P":"Xanomeline Low Dose","TRT01PN":null,"TRT01A":"Xanomeline Low Dose","SITEGR1":900,"SITEID":701,"TRTSDT":"2012-09-07","TRTEDT":"2012-09-16","ITTFL":"Y","SAFFL":"Y","EFFFL":"N","COMPLFL":"N"},{"STUDYID":"CDISCPILOT01","USUBJID":"01-701-1111","MHSEQ":3,"MHTERM":"VERBATIM_0835","MHDECOD":"VERBATIM_0835","MHBODSYS":"(uncoded - no MedDRA SOC in source)","ASTDT":null,"ASTDY":null,"TRTP":"Xanomeline Low Dose","TRT01P":"Xanomeline Low Dose","TRT01PN":null,"TRT01A":"Xanomeline Low Dose","SITEGR1":900,"SITEID":701,"TRTSDT":"2012-09-07","TRTEDT":"2012-09-16","ITTFL":"Y","SAFFL":"Y","EFFFL":"N","COMPLFL":"N"},{"STUDYID":"CDISCPILOT01","USUBJID":"01-701-1111","MHSEQ":25,"MHTERM":"VERBATIM_0846","MHDECOD":"VERBATIM_0846","MHBODSYS":"(uncoded - no MedDRA SOC in source)","ASTDT":null,"ASTDY":null,"TRTP":"Xanomeline Low Dose","TRT01P":"Xanomeline Low Dose","TRT01PN":null,"TRT01A":"Xanomeline Low Dose","SITEGR1":900,"SITEID":701,"TRTSDT":"2012-09-07","TRTEDT":"2012-09-16","ITTFL":"Y","SAFFL":"Y","EFFFL":"N","COMPLFL":"N"},{"STUDYID":"CDISCPILOT01","USUBJID":"01-701-1111","MHSEQ":24,"MHTERM":"VERBATIM_0910","MHDECOD":"VERBATIM_0910","MHBODSYS":"(uncoded - no MedDRA SOC in source)","ASTDT":null,"ASTDY":null,"TRTP":"Xanomeline Low Dose","TRT01P":"Xanomeline Low Dose","TRT01PN":null,"TRT01A":"Xanomeline Low Dose","SITEGR1":900,"SITEID":701,"TRTSDT":"2012-09-07","TRTEDT":"2012-09-16","ITTFL":"Y","SAFFL":"Y","EFFFL":"N","COMPLFL":"N"},{"STUDYID":"CDISCPILOT01","USUBJID":"01-701-1111","MHSEQ":27,"MHTERM":"VERBATIM_0951","MHDECOD":"VERBATIM_0951","MHBODSYS":"(uncoded - no MedDRA SOC in source)","ASTDT":null,"ASTDY":null,"TRTP":"Xanomeline Low Dose","TRT01P":"Xanomeline Low Dose","TRT01PN":null,"TRT01A":"Xanomeline Low Dose","SITEGR1":900,"SITEID":701,"TRTSDT":"2012-09-07","TRTEDT":"2012-09-16","ITTFL":"Y","SAFFL":"Y","EFFFL":"N","COMPLFL":"N"},{"STUDYID":"CDISCPILOT01","USUBJID":"01-701-1111","MHSEQ":4,"MHTERM":"VERBATIM_1065","MHDECOD":"VERBATIM_1065","MHBODSYS":"(uncoded - no MedDRA SOC in source)","ASTDT":null,"ASTDY":null,"TRTP":"Xanomeline Low Dose","TRT01P":"Xanomeline Low Dose","TRT01PN":null,"TRT01A":"Xanomeline Low Dose","SITEGR1":900,"SITEID":701,"TRTSDT":"2012-09-07","TRTEDT":"2012-09-16","ITTFL":"Y","SAFFL":"Y","EFFFL":"N","COMPLFL":"N"},{"STUDYID":"CDISCPILOT01","USUBJID":"01-701-1111","MHSEQ":5,"MHTERM":"VERBATIM_1201","MHDECOD":"VERBATIM_1201","MHBODSYS":"(uncoded - no MedDRA SOC in source)","ASTDT":null,"ASTDY":null,"TRTP":"Xanomeline Low Dose","TRT01P":"Xanomeline Low Dose","TRT01PN":null,"TRT01A":"Xanomeline Low Dose","SITEGR1":900,"SITEID":701,"TRTSDT":"2012-09-07","TRTEDT":"2012-09-16","ITTFL":"Y","SAFFL":"Y","EFFFL":"N","COMPLFL":"N"},{"STUDYID":"CDISCPILOT01","USUBJID":"01-701-1111","MHSEQ":6,"MHTERM":"VERBATIM_1224","MHDECOD":"VERBATIM_1224","MHBODSYS":"(uncoded - no MedDRA SOC in source)","ASTDT":null,"ASTDY":null,"TRTP":"Xanomeline Low Dose","TRT01P":"Xanomeline Low Dose","TRT01PN":null,"TRT01A":"Xanomeline Low Dose","SITEGR1":900,"SITEID":701,"TRTSDT":"2012-09-07","TRTEDT":"2012-09-16","ITTFL":"Y","SAFFL":"Y","EFFFL":"N","COMPLFL":"N"},{"STUDYID":"CDISCPILOT01","USUBJID":"01-701-1111","MHSEQ":20,"MHTERM":"VERBATIM_1261","MHDECOD":"VERBATIM_1261","MHBODSYS":"(uncoded - no MedDRA SOC in source)","ASTDT":null,"ASTDY":null,"TRTP":"Xanomeline Low Dose","TRT01P":"Xanomeline Low Dose","TRT01PN":null,"TRT01A":"Xanomeline Low Dose","SITEGR1":900,"SITEID":701,"TRTSDT":"2012-09-07","TRTEDT":"2012-09-16","ITTFL":"Y","SAFFL":"Y","EFFFL":"N","COMPLFL":"N"},{"STUDYID":"CDISCPILOT01","USUBJID":"01-701-1111","MHSEQ":7,"MHTERM":"VERBATIM_1309","MHDECOD":"VERBATIM_1309","MHBODSYS":"(uncoded - no MedDRA SOC in source)","ASTDT":null,"ASTDY":null,"TRTP":"Xanomeline Low Dose","TRT01P":"Xanomeline Low Dose","TRT01PN":null,"TRT01A":"Xanomeline Low Dose","SITEGR1":900,"SITEID":701,"TRTSDT":"2012-09-07","TRTEDT":"2012-09-16","ITTFL":"Y","SAFFL":"Y","EFFFL":"N","COMPLFL":"N"},{"STUDYID":"CDISCPILOT01","USUBJID":"01-701-1111","MHSEQ":21,"MHTERM":"VERBATIM_1378","MHDECOD":"VERBATIM_1378","MHBODSYS":"(uncoded - no MedDRA SOC in source)","ASTDT":null,"ASTDY":null,"TRTP":"Xanomeline Low Dose","TRT01P":"Xanomeline Low Dose","TRT01PN":null,"TRT01A":"Xanomeline Low Dose","SITEGR1":900,"SITEID":701,"TRTSDT":"2012-09-07","TRTEDT":"2012-09-16","ITTFL":"Y","SAFFL":"Y","EFFFL":"N","COMPLFL":"N"},{"STUDYID":"CDISCPILOT01","USUBJID":"01-701-1111","MHSEQ":8,"MHTERM":"VERBATIM_1384","MHDECOD":"VERBATIM_1384","MHBODSYS":"(uncoded - no MedDRA SOC in source)","ASTDT":null,"ASTDY":null,"TRTP":"Xanomeline Low Dose","TRT01P":"Xanomeline Low Dose","TRT01PN":null,"TRT01A":"Xanomeline Low Dose","SITEGR1":900,"SITEID":701,"TRTSDT":"2012-09-07","TRTEDT":"2012-09-16","ITTFL":"Y","SAFFL":"Y","EFFFL":"N","COMPLFL":"N"},{"STUDYID":"CDISCPILOT01","USUBJID":"01-701-1111","MHSEQ":22,"MHTERM":"VERBATIM_1407","MHDECOD":"VERBATIM_1407","MHBODSYS":"(uncoded - no MedDRA SOC in source)","ASTDT":null,"ASTDY":null,"TRTP":"Xanomeline Low Dose","TRT01P":"Xanomeline Low Dose","TRT01PN":null,"TRT01A":"Xanomeline Low Dose","SITEGR1":900,"SITEID":701,"TRTSDT":"2012-09-07","TRTEDT":"2012-09-16","ITTFL":"Y","SAFFL":"Y","EFFFL":"N","COMPLFL":"N"},{"STUDYID":"CDISCPILOT01","USUBJID":"01-701-1111","MHSEQ":9,"MHTERM":"VERBATIM_1512","MHDECOD":"VERBATIM_1512","MHBODSYS":"(uncoded - no MedDRA SOC in source)","ASTDT":null,"ASTDY":null,"TRTP":"Xanomeline Low Dose","TRT01P":"Xanomeline Low Dose","TRT01PN":null,"TRT01A":"Xanomeline Low Dose","SITEGR1":900,"SITEID":701,"TRTSDT":"2012-09-07","TRTEDT":"2012-09-16","ITTFL":"Y","SAFFL":"Y","EFFFL":"N","COMPLFL":"N"},{"STUDYID":"CDISCPILOT01","USUBJID":"01-701-1111","MHSEQ":26,"MHTERM":"VERBATIM_1545","MHDECOD":"VERBATIM_1545","MHBODSYS":"(uncoded - no MedDRA SOC in source)","ASTDT":null,"ASTDY":null,"TRTP":"Xanomeline Low Dose","TRT01P":"Xanomeline Low Dose","TRT01PN":null,"TRT01A":"Xanomeline Low Dose","SITEGR1":900,"SITEID":701,"TRTSDT":"2012-09-07","TRTEDT":"2012-09-16","ITTFL":"Y","SAFFL":"Y","EFFFL":"N","COMPLFL":"N"},{"STUDYID":"CDISCPILOT01","USUBJID":"01-701-1111","MHSEQ":10,"MHTERM":"VERBATIM_1583","MHDECOD":"VERBATIM_1583","MHBODSYS":"(uncoded - no MedDRA SOC in source)","ASTDT":null,"ASTDY":null,"TRTP":"Xanomeline Low Dose","TRT01P":"Xanomeline Low Dose","TRT01PN":null,"TRT01A":"Xanomeline Low Dose","SITEGR1":900,"SITEID":701,"TRTSDT":"2012-09-07","TRTEDT":"2012-09-16","ITTFL":"Y","SAFFL":"Y","EFFFL":"N","COMPLFL":"N"},{"STUDYID":"CDISCPILOT01","USUBJID":"01-701-1111","MHSEQ":11,"MHTERM":"VERBATIM_1589","MHDECOD":"VERBATIM_1589","MHBODSYS":"(uncoded - no MedDRA SOC in source)","ASTDT":null,"ASTDY":null,"TRTP":"Xanomeline Low Dose","TRT01P":"Xanomeline Low Dose","TRT01PN":null,"TRT01A":"Xanomeline Low Dose","SITEGR1":900,"SITEID":701,"TRTSDT":"2012-09-07","TRTEDT":"2012-09-16","ITTFL":"Y","SAFFL":"Y","EFFFL":"N","COMPLFL":"N"},{"STUDYID":"CDISCPILOT01","USUBJID":"01-701-1111","MHSEQ":12,"MHTERM":"VERBATIM_1641","MHDECOD":"VERBATIM_1641","MHBODSYS":"(uncoded - no MedDRA SOC in source)","ASTDT":null,"ASTDY":null,"TRTP":"Xanomeline Low Dose","TRT01P":"Xanomeline Low Dose","TRT01PN":null,"TRT01A":"Xanomeline Low Dose","SITEGR1":900,"SITEID":701,"TRTSDT":"2012-09-07","TRTEDT":"2012-09-16","ITTFL":"Y","SAFFL":"Y","EFFFL":"N","COMPLFL":"N"},{"STUDYID":"CDISCPILOT01","USUBJID":"01-701-1111","MHSEQ":13,"MHTERM":"VERBATIM_1769","MHDECOD":"VERBATIM_1769","MHBODSYS":"(uncoded - no MedDRA SOC in source)","ASTDT":null,"ASTDY":null,"TRTP":"Xanomeline Low Dose","TRT01P":"Xanomeline Low Dose","TRT01PN":null,"TRT01A":"Xanomeline Low Dose","SITEGR1":900,"SITEID":701,"TRTSDT":"2012-09-07","TRTEDT":"2012-09-16","ITTFL":"Y","SAFFL":"Y","EFFFL":"N","COMPLFL":"N"},{"STUDYID":"CDISCPILOT01","USUBJID":"01-701-1111","MHSEQ":14,"MHTERM":"VERBATIM_1775","MHDECOD":"VERBATIM_1775","MHBODSYS":"(uncoded - no MedDRA SOC in source)","ASTDT":null,"ASTDY":null,"TRTP":"Xanomeline Low Dose","TRT01P":"Xanomeline Low Dose","TRT01PN":null,"TRT01A":"Xanomeline Low Dose","SITEGR1":900,"SITEID":701,"TRTSDT":"2012-09-07","TRTEDT":"2012-09-16","ITTFL":"Y","SAFFL":"Y","EFFFL":"N","COMPLFL":"N"},{"STUDYID":"CDISCPILOT01","USUBJID":"01-701-1115","MHSEQ":13,"MHTERM":"ALZHEIMER'S DISEASE","MHDECOD":"ALZHEIMER'S DISEASE","MHBODSYS":"(uncoded - no MedDRA SOC in source)","ASTDT":"2004-05-28","ASTDY":null,"TRTP":"Xanomeline Low Dose","TRT01P":"Xanomeline Low Dose","TRT01PN":null,"TRT01A":"Xanomeline Low Dose","SITEGR1":900,"SITEID":701,"TRTSDT":"2012-11-30","TRTEDT":"2013-01-23","ITTFL":"Y","SAFFL":"Y","EFFFL":"N","COMPLFL":"N"},{"STUDYID":"CDISCPILOT01","USUBJID":"01-701-1115","MHSEQ":1,"MHTERM":"VERBATIM_0014","MHDECOD":"VERBATIM_0014","MHBODSYS":"(uncoded - no MedDRA SOC in source)","ASTDT":null,"ASTDY":null,"TRTP":"Xanomeline Low Dose","TRT01P":"Xanomeline Low Dose","TRT01PN":null,"TRT01A":"Xanomeline Low Dose","SITEGR1":900,"SITEID":701,"TRTSDT":"2012-11-30","TRTEDT":"2013-01-23","ITTFL":"Y","SAFFL":"Y","EFFFL":"N","COMPLFL":"N"},{"STUDYID":"CDISCPILOT01","USUBJID":"01-701-1115","MHSEQ":2,"MHTERM":"VERBATIM_0261","MHDECOD":"VERBATIM_0261","MHBODSYS":"(uncoded - no MedDRA SOC in source)","ASTDT":null,"ASTDY":null,"TRTP":"Xanomeline Low Dose","TRT01P":"Xanomeline Low Dose","TRT01PN":null,"TRT01A":"Xanomeline Low Dose","SITEGR1":900,"SITEID":701,"TRTSDT":"2012-11-30","TRTEDT":"2013-01-23","ITTFL":"Y","SAFFL":"Y","EFFFL":"N","COMPLFL":"N"},{"STUDYID":"CDISCPILOT01","USUBJID":"01-701-1115","MHSEQ":3,"MHTERM":"VERBATIM_0443","MHDECOD":"VERBATIM_0443","MHBODSYS":"(uncoded - no MedDRA SOC in source)","ASTDT":null,"ASTDY":null,"TRTP":"Xanomeline Low Dose","TRT01P":"Xanomeline Low Dose","TRT01PN":null,"TRT01A":"Xanomeline Low Dose","SITEGR1":900,"SITEID":701,"TRTSDT":"2012-11-30","TRTEDT":"2013-01-23","ITTFL":"Y","SAFFL":"Y","EFFFL":"N","COMPLFL":"N"},{"STUDYID":"CDISCPILOT01","USUBJID":"01-701-1115","MHSEQ":10,"MHTERM":"VERBATIM_0470","MHDECOD":"VERBATIM_0470","MHBODSYS":"(uncoded - no MedDRA SOC in source)","ASTDT":null,"ASTDY":null,"TRTP":"Xanomeline Low Dose","TRT01P":"Xanomeline Low Dose","TRT01PN":null,"TRT01A":"Xanomeline Low Dose","SITEGR1":900,"SITEID":701,"TRTSDT":"2012-11-30","TRTEDT":"2013-01-23","ITTFL":"Y","SAFFL":"Y","EFFFL":"N","COMPLFL":"N"},{"STUDYID":"CDISCPILOT01","USUBJID":"01-701-1115","MHSEQ":11,"MHTERM":"VERBATIM_0714","MHDECOD":"VERBATIM_0714","MHBODSYS":"(uncoded - no MedDRA SOC in source)","ASTDT":null,"ASTDY":null,"TRTP":"Xanomeline Low Dose","TRT01P":"Xanomeline Low Dose","TRT01PN":null,"TRT01A":"Xanomeline Low Dose","SITEGR1":900,"SITEID":701,"TRTSDT":"2012-11-30","TRTEDT":"2013-01-23","ITTFL":"Y","SAFFL":"Y","EFFFL":"N","COMPLFL":"N"},{"STUDYID":"CDISCPILOT01","USUBJID":"01-701-1115","MHSEQ":12,"MHTERM":"VERBATIM_0739","MHDECOD":"VERBATIM_0739","MHBODSYS":"(uncoded - no MedDRA SOC in source)","ASTDT":null,"ASTDY":null,"TRTP":"Xanomeline Low Dose","TRT01P":"Xanomeline Low Dose","TRT01PN":null,"TRT01A":"Xanomeline Low Dose","SITEGR1":900,"SITEID":701,"TRTSDT":"2012-11-30","TRTEDT":"2013-01-23","ITTFL":"Y","SAFFL":"Y","EFFFL":"N","COMPLFL":"N"},{"STUDYID":"CDISCPILOT01","USUBJID":"01-701-1115","MHSEQ":4,"MHTERM":"VERBATIM_0773","MHDECOD":"VERBATIM_0773","MHBODSYS":"(uncoded - no MedDRA SOC in source)","ASTDT":null,"ASTDY":null,"TRTP":"Xanomeline Low Dose","TRT01P":"Xanomeline Low Dose","TRT01PN":null,"TRT01A":"Xanomeline Low Dose","SITEGR1":900,"SITEID":701,"TRTSDT":"2012-11-30","TRTEDT":"2013-01-23","ITTFL":"Y","SAFFL":"Y","EFFFL":"N","COMPLFL":"N"},{"STUDYID":"CDISCPILOT01","USUBJID":"01-701-1115","MHSEQ":5,"MHTERM":"VERBATIM_1179","MHDECOD":"VERBATIM_1179","MHBODSYS":"(uncoded - no MedDRA SOC in source)","ASTDT":null,"ASTDY":null,"TRTP":"Xanomeline Low Dose","TRT01P":"Xanomeline Low Dose","TRT01PN":null,"TRT01A":"Xanomeline Low Dose","SITEGR1":900,"SITEID":701,"TRTSDT":"2012-11-30","TRTEDT":"2013-01-23","ITTFL":"Y","SAFFL":"Y","EFFFL":"N","COMPLFL":"N"},{"STUDYID":"CDISCPILOT01","USUBJID":"01-701-1115","MHSEQ":6,"MHTERM":"VERBATIM_1350","MHDECOD":"VERBATIM_1350","MHBODSYS":"(uncoded - no MedDRA SOC in source)","ASTDT":null,"ASTDY":null,"TRTP":"Xanomeline Low Dose","TRT01P":"Xanomeline Low Dose","TRT01PN":null,"TRT01A":"Xanomeline Low Dose","SITEGR1":900,"SITEID":701,"TRTSDT":"2012-11-30","TRTEDT":"2013-01-23","ITTFL":"Y","SAFFL":"Y","EFFFL":"N","COMPLFL":"N"},{"STUDYID":"CDISCPILOT01","USUBJID":"01-701-1115","MHSEQ":14,"MHTERM":"VERBATIM_1509","MHDECOD":"VERBATIM_1509","MHBODSYS":"(uncoded - no MedDRA SOC in source)","ASTDT":null,"ASTDY":null,"TRTP":"Xanomeline Low Dose","TRT01P":"Xanomeline Low Dose","TRT01PN":null,"TRT01A":"Xanomeline Low Dose","SITEGR1":900,"SITEID":701,"TRTSDT":"2012-11-30","TRTEDT":"2013-01-23","ITTFL":"Y","SAFFL":"Y","EFFFL":"N","COMPLFL":"N"},{"STUDYID":"CDISCPILOT01","USUBJID":"01-701-1115","MHSEQ":15,"MHTERM":"VERBATIM_1533","MHDECOD":"VERBATIM_1533","MHBODSYS":"(uncoded - no MedDRA SOC in source)","ASTDT":null,"ASTDY":null,"TRTP":"Xanomeline Low Dose","TRT01P":"Xanomeline Low Dose","TRT01PN":null,"TRT01A":"Xanomeline Low Dose","SITEGR1":900,"SITEID":701,"TRTSDT":"2012-11-30","TRTEDT":"2013-01-23","ITTFL":"Y","SAFFL":"Y","EFFFL":"N","COMPLFL":"N"},{"STUDYID":"CDISCPILOT01","USUBJID":"01-701-1115","MHSEQ":7,"MHTERM":"VERBATIM_1546","MHDECOD":"VERBATIM_1546","MHBODSYS":"(uncoded - no MedDRA SOC in source)","ASTDT":null,"ASTDY":null,"TRTP":"Xanomeline Low Dose","TRT01P":"Xanomeline Low Dose","TRT01PN":null,"TRT01A":"Xanomeline Low Dose","SITEGR1":900,"SITEID":701,"TRTSDT":"2012-11-30","TRTEDT":"2013-01-23","ITTFL":"Y","SAFFL":"Y","EFFFL":"N","COMPLFL":"N"},{"STUDYID":"CDISCPILOT01","USUBJID":"01-701-1115","MHSEQ":9,"MHTERM":"VERBATIM_1716","MHDECOD":"VERBATIM_1716","MHBODSYS":"(uncoded - no MedDRA SOC in source)","ASTDT":null,"ASTDY":null,"TRTP":"Xanomeline Low Dose","TRT01P":"Xanomeline Low Dose","TRT01PN":null,"TRT01A":"Xanomeline Low Dose","SITEGR1":900,"SITEID":701,"TRTSDT":"2012-11-30","TRTEDT":"2013-01-23","ITTFL":"Y","SAFFL":"Y","EFFFL":"N","COMPLFL":"N"},{"STUDYID":"CDISCPILOT01","USUBJID":"01-701-1115","MHSEQ":8,"MHTERM":"VERBATIM_1749","MHDECOD":"VERBATIM_1749","MHBODSYS":"(uncoded - no MedDRA SOC in source)","ASTDT":null,"ASTDY":null,"TRTP":"Xanomeline Low Dose","TRT01P":"Xanomeline Low Dose","TRT01PN":null,"TRT01A":"Xanomeline Low Dose","SITEGR1":900,"SITEID":701,"TRTSDT":"2012-11-30","TRTEDT":"2013-01-23","ITTFL":"Y","SAFFL":"Y","EFFFL":"N","COMPLFL":"N"},{"STUDYID":"CDISCPILOT01","USUBJID":"01-701-1118","MHSEQ":8,"MHTERM":"ALZHEIMER'S DISEASE","MHDECOD":"ALZHEIMER'S DISEASE","MHBODSYS":"(uncoded - no MedDRA SOC in source)","ASTDT":"2010-06-24","ASTDY":null,"TRTP":"Placebo","TRT01P":"Placebo","TRT01PN":null,"TRT01A":"Placebo","SITEGR1":900,"SITEID":701,"TRTSDT":"2014-03-12","TRTEDT":"2014-09-09","ITTFL":"Y","SAFFL":"Y","EFFFL":"N","COMPLFL":"Y"},{"STUDYID":"CDISCPILOT01","USUBJID":"01-701-1118","MHSEQ":1,"MHTERM":"VERBATIM_0267","MHDECOD":"VERBATIM_0267","MHBODSYS":"(uncoded - no MedDRA SOC in source)","ASTDT":null,"ASTDY":null,"TRTP":"Placebo","TRT01P":"Placebo","TRT01PN":null,"TRT01A":"Placebo","SITEGR1":900,"SITEID":701,"TRTSDT":"2014-03-12","TRTEDT":"2014-09-09","ITTFL":"Y","SAFFL":"Y","EFFFL":"N","COMPLFL":"Y"},{"STUDYID":"CDISCPILOT01","USUBJID":"01-701-1118","MHSEQ":2,"MHTERM":"VERBATIM_0301","MHDECOD":"VERBATIM_0301","MHBODSYS":"(uncoded - no MedDRA SOC in source)","ASTDT":null,"ASTDY":null,"TRTP":"Placebo","TRT01P":"Placebo","TRT01PN":null,"TRT01A":"Placebo","SITEGR1":900,"SITEID":701,"TRTSDT":"2014-03-12","TRTEDT":"2014-09-09","ITTFL":"Y","SAFFL":"Y","EFFFL":"N","COMPLFL":"Y"},{"STUDYID":"CDISCPILOT01","USUBJID":"01-701-1118","MHSEQ":3,"MHTERM":"VERBATIM_0800","MHDECOD":"VERBATIM_0800","MHBODSYS":"(uncoded - no MedDRA SOC in source)","ASTDT":null,"ASTDY":null,"TRTP":"Placebo","TRT01P":"Placebo","TRT01PN":null,"TRT01A":"Placebo","SITEGR1":900,"SITEID":701,"TRTSDT":"2014-03-12","TRTEDT":"2014-09-09","ITTFL":"Y","SAFFL":"Y","EFFFL":"N","COMPLFL":"Y"},{"STUDYID":"CDISCPILOT01","USUBJID":"01-701-1118","MHSEQ":7,"MHTERM":"VERBATIM_1371","MHDECOD":"VERBATIM_1371","MHBODSYS":"(uncoded - no MedDRA SOC in source)","ASTDT":null,"ASTDY":null,"TRTP":"Placebo","TRT01P":"Placebo","TRT01PN":null,"TRT01A":"Placebo","SITEGR1":900,"SITEID":701,"TRTSDT":"2014-03-12","TRTEDT":"2014-09-09","ITTFL":"Y","SAFFL":"Y","EFFFL":"N","COMPLFL":"Y"},{"STUDYID":"CDISCPILOT01","USUBJID":"01-701-1118","MHSEQ":6,"MHTERM":"VERBATIM_1514","MHDECOD":"VERBATIM_1514","MHBODSYS":"(uncoded - no MedDRA SOC in source)","ASTDT":null,"ASTDY":null,"TRTP":"Placebo","TRT01P":"Placebo","TRT01PN":null,"TRT01A":"Placebo","SITEGR1":900,"SITEID":701,"TRTSDT":"2014-03-12","TRTEDT":"2014-09-09","ITTFL":"Y","SAFFL":"Y","EFFFL":"N","COMPLFL":"Y"},{"STUDYID":"CDISCPILOT01","USUBJID":"01-701-1118","MHSEQ":4,"MHTERM":"VERBATIM_1683","MHDECOD":"VERBATIM_1683","MHBODSYS":"(uncoded - no MedDRA SOC in source)","ASTDT":null,"ASTDY":null,"TRTP":"Placebo","TRT01P":"Placebo","TRT01PN":null,"TRT01A":"Placebo","SITEGR1":900,"SITEID":701,"TRTSDT":"2014-03-12","TRTEDT":"2014-09-09","ITTFL":"Y","SAFFL":"Y","EFFFL":"N","COMPLFL":"Y"},{"STUDYID":"CDISCPILOT01","USUBJID":"01-701-1118","MHSEQ":5,"MHTERM":"VERBATIM_1769","MHDECOD":"VERBATIM_1769","MHBODSYS":"(uncoded - no MedDRA SOC in source)","ASTDT":null,"ASTDY":null,"TRTP":"Placebo","TRT01P":"Placebo","TRT01PN":null,"TRT01A":"Placebo","SITEGR1":900,"SITEID":701,"TRTSDT":"2014-03-12","TRTEDT":"2014-09-09","ITTFL":"Y","SAFFL":"Y","EFFFL":"N","COMPLFL":"Y"},{"STUDYID":"CDISCPILOT01","USUBJID":"01-701-1130","MHSEQ":13,"MHTERM":"ALZHEIMER'S DISEASE","MHDECOD":"ALZHEIMER'S DISEASE","MHBODSYS":"(uncoded - no MedDRA SOC in source)","ASTDT":"2010-05-22","ASTDY":null,"TRTP":"Placebo","TRT01P":"Placebo","TRT01PN":null,"TRT01A":"Placebo","SITEGR1":900,"SITEID":701,"TRTSDT":"2014-02-15","TRTEDT":"2014-08-16","ITTFL":"Y","SAFFL":"Y","EFFFL":"N","COMPLFL":"Y"},{"STUDYID":"CDISCPILOT01","USUBJID":"01-701-1130","MHSEQ":1,"MHTERM":"VERBATIM_0025","MHDECOD":"VERBATIM_0025","MHBODSYS":"(uncoded - no MedDRA SOC in source)","ASTDT":null,"ASTDY":null,"TRTP":"Placebo","TRT01P":"Placebo","TRT01PN":null,"TRT01A":"Placebo","SITEGR1":900,"SITEID":701,"TRTSDT":"2014-02-15","TRTEDT":"2014-08-16","ITTFL":"Y","SAFFL":"Y","EFFFL":"N","COMPLFL":"Y"},{"STUDYID":"CDISCPILOT01","USUBJID":"01-701-1130","MHSEQ":11,"MHTERM":"VERBATIM_0055","MHDECOD":"VERBATIM_0055","MHBODSYS":"(uncoded - no MedDRA SOC in source)","ASTDT":null,"ASTDY":null,"TRTP":"Placebo","TRT01P":"Placebo","TRT01PN":null,"TRT01A":"Placebo","SITEGR1":900,"SITEID":701,"TRTSDT":"2014-02-15","TRTEDT":"2014-08-16","ITTFL":"Y","SAFFL":"Y","EFFFL":"N","COMPLFL":"Y"},{"STUDYID":"CDISCPILOT01","USUBJID":"01-701-1130","MHSEQ":12,"MHTERM":"VERBATIM_0154","MHDECOD":"VERBATIM_0154","MHBODSYS":"(uncoded - no MedDRA SOC in source)","ASTDT":null,"ASTDY":null,"TRTP":"Placebo","TRT01P":"Placebo","TRT01PN":null,"TRT01A":"Placebo","SITEGR1":900,"SITEID":701,"TRTSDT":"2014-02-15","TRTEDT":"2014-08-16","ITTFL":"Y","SAFFL":"Y","EFFFL":"N","COMPLFL":"Y"},{"STUDYID":"CDISCPILOT01","USUBJID":"01-701-1130","MHSEQ":9,"MHTERM":"VERBATIM_0267","MHDECOD":"VERBATIM_0267","MHBODSYS":"(uncoded - no MedDRA SOC in source)","ASTDT":null,"ASTDY":null,"TRTP":"Placebo","TRT01P":"Placebo","TRT01PN":null,"TRT01A":"Placebo","SITEGR1":900,"SITEID":701,"TRTSDT":"2014-02-15","TRTEDT":"2014-08-16","ITTFL":"Y","SAFFL":"Y","EFFFL":"N","COMPLFL":"Y"},{"STUDYID":"CDISCPILOT01","USUBJID":"01-701-1130","MHSEQ":7,"MHTERM":"VERBATIM_0329","MHDECOD":"VERBATIM_0329","MHBODSYS":"(uncoded - no MedDRA SOC in source)","ASTDT":null,"ASTDY":null,"TRTP":"Placebo","TRT01P":"Placebo","TRT01PN":null,"TRT01A":"Placebo","SITEGR1":900,"SITEID":701,"TRTSDT":"2014-02-15","TRTEDT":"2014-08-16","ITTFL":"Y","SAFFL":"Y","EFFFL":"N","COMPLFL":"Y"},{"STUDYID":"CDISCPILOT01","USUBJID":"01-701-1130","MHSEQ":14,"MHTERM":"VERBATIM_0448","MHDECOD":"VERBATIM_0448","MHBODSYS":"(uncoded - no MedDRA SOC in source)","ASTDT":null,"ASTDY":null,"TRTP":"Placebo","TRT01P":"Placebo","TRT01PN":null,"TRT01A":"Placebo","SITEGR1":900,"SITEID":701,"TRTSDT":"2014-02-15","TRTEDT":"2014-08-16","ITTFL":"Y","SAFFL":"Y","EFFFL":"N","COMPLFL":"Y"},{"STUDYID":"CDISCPILOT01","USUBJID":"01-701-1130","MHSEQ":15,"MHTERM":"VERBATIM_0463","MHDECOD":"VERBATIM_0463","MHBODSYS":"(uncoded - no MedDRA SOC in source)","ASTDT":"2014-01-15","ASTDY":null,"TRTP":"Placebo","TRT01P":"Placebo","TRT01PN":null,"TRT01A":"Placebo","SITEGR1":900,"SITEID":701,"TRTSDT":"2014-02-15","TRTEDT":"2014-08-16","ITTFL":"Y","SAFFL":"Y","EFFFL":"N","COMPLFL":"Y"},{"STUDYID":"CDISCPILOT01","USUBJID":"01-701-1130","MHSEQ":2,"MHTERM":"VERBATIM_0773","MHDECOD":"VERBATIM_0773","MHBODSYS":"(uncoded - no MedDRA SOC in source)","ASTDT":null,"ASTDY":null,"TRTP":"Placebo","TRT01P":"Placebo","TRT01PN":null,"TRT01A":"Placebo","SITEGR1":900,"SITEID":701,"TRTSDT":"2014-02-15","TRTEDT":"2014-08-16","ITTFL":"Y","SAFFL":"Y","EFFFL":"N","COMPLFL":"Y"},{"STUDYID":"CDISCPILOT01","USUBJID":"01-701-1130","MHSEQ":8,"MHTERM":"VERBATIM_0919","MHDECOD":"VERBATIM_0919","MHBODSYS":"(uncoded - no MedDRA SOC in source)","ASTDT":null,"ASTDY":null,"TRTP":"Placebo","TRT01P":"Placebo","TRT01PN":null,"TRT01A":"Placebo","SITEGR1":900,"SITEID":701,"TRTSDT":"2014-02-15","TRTEDT":"2014-08-16","ITTFL":"Y","SAFFL":"Y","EFFFL":"N","COMPLFL":"Y"},{"STUDYID":"CDISCPILOT01","USUBJID":"01-701-1130","MHSEQ":10,"MHTERM":"VERBATIM_0919","MHDECOD":"VERBATIM_0919","MHBODSYS":"(uncoded - no MedDRA SOC in source)","ASTDT":null,"ASTDY":null,"TRTP":"Placebo","TRT01P":"Placebo","TRT01PN":null,"TRT01A":"Placebo","SITEGR1":900,"SITEID":701,"TRTSDT":"2014-02-15","TRTEDT":"2014-08-16","ITTFL":"Y","SAFFL":"Y","EFFFL":"N","COMPLFL":"Y"},{"STUDYID":"CDISCPILOT01","USUBJID":"01-701-1130","MHSEQ":3,"MHTERM":"VERBATIM_1446","MHDECOD":"VERBATIM_1446","MHBODSYS":"(uncoded - no MedDRA SOC in source)","ASTDT":null,"ASTDY":null,"TRTP":"Placebo","TRT01P":"Placebo","TRT01PN":null,"TRT01A":"Placebo","SITEGR1":900,"SITEID":701,"TRTSDT":"2014-02-15","TRTEDT":"2014-08-16","ITTFL":"Y","SAFFL":"Y","EFFFL":"N","COMPLFL":"Y"},{"STUDYID":"CDISCPILOT01","USUBJID":"01-701-1130","MHSEQ":4,"MHTERM":"VERBATIM_1454","MHDECOD":"VERBATIM_1454","MHBODSYS":"(uncoded - no MedDRA SOC in source)","ASTDT":null,"ASTDY":null,"TRTP":"Placebo","TRT01P":"Placebo","TRT01PN":null,"TRT01A":"Placebo","SITEGR1":900,"SITEID":701,"TRTSDT":"2014-02-15","TRTEDT":"2014-08-16","ITTFL":"Y","SAFFL":"Y","EFFFL":"N","COMPLFL":"Y"},{"STUDYID":"CDISCPILOT01","USUBJID":"01-701-1130","MHSEQ":6,"MHTERM":"VERBATIM_1716","MHDECOD":"VERBATIM_1716","MHBODSYS":"(uncoded - no MedDRA SOC in source)","ASTDT":null,"ASTDY":null,"TRTP":"Placebo","TRT01P":"Placebo","TRT01PN":null,"TRT01A":"Placebo","SITEGR1":900,"SITEID":701,"TRTSDT":"2014-02-15","TRTEDT":"2014-08-16","ITTFL":"Y","SAFFL":"Y","EFFFL":"N","COMPLFL":"Y"},{"STUDYID":"CDISCPILOT01","USUBJID":"01-701-1130","MHSEQ":5,"MHTERM":"VERBATIM_1751","MHDECOD":"VERBATIM_1751","MHBODSYS":"(uncoded - no MedDRA SOC in source)","ASTDT":null,"ASTDY":null,"TRTP":"Placebo","TRT01P":"Placebo","TRT01PN":null,"TRT01A":"Placebo","SITEGR1":900,"SITEID":701,"TRTSDT":"2014-02-15","TRTEDT":"2014-08-16","ITTFL":"Y","SAFFL":"Y","EFFFL":"N","COMPLFL":"Y"},{"STUDYID":"CDISCPILOT01","USUBJID":"01-701-1133","MHSEQ":11,"MHTERM":"ALZHEIMER'S DISEASE","MHDECOD":"ALZHEIMER'S DISEASE","MHBODSYS":"(uncoded - no MedDRA SOC in source)","ASTDT":"2010-03-11","ASTDY":null,"TRTP":"Xanomeline High Dose","TRT01P":"Xanomeline High Dose","TRT01PN":null,"TRT01A":"Xanomeline High Dose","SITEGR1":900,"SITEID":701,"TRTSDT":"2012-10-28","TRTEDT":"2013-04-28","ITTFL":"Y","SAFFL":"Y","EFFFL":"N","COMPLFL":"Y"},{"STUDYID":"CDISCPILOT01","USUBJID":"01-701-1133","MHSEQ":10,"MHTERM":"VERBATIM_0009","MHDECOD":"VERBATIM_0009","MHBODSYS":"(uncoded - no MedDRA SOC in source)","ASTDT":null,"ASTDY":null,"TRTP":"Xanomeline High Dose","TRT01P":"Xanomeline High Dose","TRT01PN":null,"TRT01A":"Xanomeline High Dose","SITEGR1":900,"SITEID":701,"TRTSDT":"2012-10-28","TRTEDT":"2013-04-28","ITTFL":"Y","SAFFL":"Y","EFFFL":"N","COMPLFL":"Y"},{"STUDYID":"CDISCPILOT01","USUBJID":"01-701-1133","MHSEQ":9,"MHTERM":"VERBATIM_0267","MHDECOD":"VERBATIM_0267","MHBODSYS":"(uncoded - no MedDRA SOC in source)","ASTDT":null,"ASTDY":null,"TRTP":"Xanomeline High Dose","TRT01P":"Xanomeline High Dose","TRT01PN":null,"TRT01A":"Xanomeline High Dose","SITEGR1":900,"SITEID":701,"TRTSDT":"2012-10-28","TRTEDT":"2013-04-28","ITTFL":"Y","SAFFL":"Y","EFFFL":"N","COMPLFL":"Y"},{"STUDYID":"CDISCPILOT01","USUBJID":"01-701-1133","MHSEQ":5,"MHTERM":"VERBATIM_0293","MHDECOD":"VERBATIM_0293","MHBODSYS":"(uncoded - no MedDRA SOC in source)","ASTDT":null,"ASTDY":null,"TRTP":"Xanomeline High Dose","TRT01P":"Xanomeline High Dose","TRT01PN":null,"TRT01A":"Xanomeline High Dose","SITEGR1":900,"SITEID":701,"TRTSDT":"2012-10-28","TRTEDT":"2013-04-28","ITTFL":"Y","SAFFL":"Y","EFFFL":"N","COMPLFL":"Y"},{"STUDYID":"CDISCPILOT01","USUBJID":"01-701-1133","MHSEQ":6,"MHTERM":"VERBATIM_0342","MHDECOD":"VERBATIM_0342","MHBODSYS":"(uncoded - no MedDRA SOC in source)","ASTDT":null,"ASTDY":null,"TRTP":"Xanomeline High Dose","TRT01P":"Xanomeline High Dose","TRT01PN":null,"TRT01A":"Xanomeline High Dose","SITEGR1":900,"SITEID":701,"TRTSDT":"2012-10-28","TRTEDT":"2013-04-28","ITTFL":"Y","SAFFL":"Y","EFFFL":"N","COMPLFL":"Y"},{"STUDYID":"CDISCPILOT01","USUBJID":"01-701-1133","MHSEQ":7,"MHTERM":"VERBATIM_0517","MHDECOD":"VERBATIM_0517","MHBODSYS":"(uncoded - no MedDRA SOC in source)","ASTDT":null,"ASTDY":null,"TRTP":"Xanomeline High Dose","TRT01P":"Xanomeline High Dose","TRT01PN":null,"TRT01A":"Xanomeline High Dose","SITEGR1":900,"SITEID":701,"TRTSDT":"2012-10-28","TRTEDT":"2013-04-28","ITTFL":"Y","SAFFL":"Y","EFFFL":"N","COMPLFL":"Y"},{"STUDYID":"CDISCPILOT01","USUBJID":"01-701-1133","MHSEQ":8,"MHTERM":"VERBATIM_1023","MHDECOD":"VERBATIM_1023","MHBODSYS":"(uncoded - no MedDRA SOC in source)","ASTDT":null,"ASTDY":null,"TRTP":"Xanomeline High Dose","TRT01P":"Xanomeline High Dose","TRT01PN":null,"TRT01A":"Xanomeline High Dose","SITEGR1":900,"SITEID":701,"TRTSDT":"2012-10-28","TRTEDT":"2013-04-28","ITTFL":"Y","SAFFL":"Y","EFFFL":"N","COMPLFL":"Y"},{"STUDYID":"CDISCPILOT01","USUBJID":"01-701-1133","MHSEQ":1,"MHTERM":"VERBATIM_1121","MHDECOD":"VERBATIM_1121","MHBODSYS":"(uncoded - no MedDRA SOC in source)","ASTDT":null,"ASTDY":null,"TRTP":"Xanomeline High Dose","TRT01P":"Xanomeline High Dose","TRT01PN":null,"TRT01A":"Xanomeline High Dose","SITEGR1":900,"SITEID":701,"TRTSDT":"2012-10-28","TRTEDT":"2013-04-28","ITTFL":"Y","SAFFL":"Y","EFFFL":"N","COMPLFL":"Y"},{"STUDYID":"CDISCPILOT01","USUBJID":"01-701-1133","MHSEQ":2,"MHTERM":"VERBATIM_1683","MHDECOD":"VERBATIM_1683","MHBODSYS":"(uncoded - no MedDRA SOC in source)","ASTDT":null,"ASTDY":null,"TRTP":"Xanomeline High Dose","TRT01P":"Xanomeline High Dose","TRT01PN":null,"TRT01A":"Xanomeline High Dose","SITEGR1":900,"SITEID":701,"TRTSDT":"2012-10-28","TRTEDT":"2013-04-28","ITTFL":"Y","SAFFL":"Y","EFFFL":"N","COMPLFL":"Y"},{"STUDYID":"CDISCPILOT01","USUBJID":"01-701-1133","MHSEQ":4,"MHTERM":"VERBATIM_1716","MHDECOD":"VERBATIM_1716","MHBODSYS":"(uncoded - no MedDRA SOC in source)","ASTDT":null,"ASTDY":null,"TRTP":"Xanomeline High Dose","TRT01P":"Xanomeline High Dose","TRT01PN":null,"TRT01A":"Xanomeline High Dose","SITEGR1":900,"SITEID":701,"TRTSDT":"2012-10-28","TRTEDT":"2013-04-28","ITTFL":"Y","SAFFL":"Y","EFFFL":"N","COMPLFL":"Y"},{"STUDYID":"CDISCPILOT01","USUBJID":"01-701-1133","MHSEQ":3,"MHTERM":"VERBATIM_1796","MHDECOD":"VERBATIM_1796","MHBODSYS":"(uncoded - no MedDRA SOC in source)","ASTDT":null,"ASTDY":null,"TRTP":"Xanomeline High Dose","TRT01P":"Xanomeline High Dose","TRT01PN":null,"TRT01A":"Xanomeline High Dose","SITEGR1":900,"SITEID":701,"TRTSDT":"2012-10-28","TRTEDT":"2013-04-28","ITTFL":"Y","SAFFL":"Y","EFFFL":"N","COMPLFL":"Y"},{"STUDYID":"CDISCPILOT01","USUBJID":"01-701-1146","MHSEQ":11,"MHTERM":"ALZHEIMER'S DISEASE","MHDECOD":"ALZHEIMER'S DISEASE","MHBODSYS":"(uncoded - no MedDRA SOC in source)","ASTDT":"2009-11-17","ASTDY":null,"TRTP":"Xanomeline High Dose","TRT01P":"Xanomeline High Dose","TRT01PN":null,"TRT01A":"Xanomeline High Dose","SITEGR1":900,"SITEID":701,"TRTSDT":"2013-05-20","TRTEDT":"2013-06-26","ITTFL":"Y","SAFFL":"Y","EFFFL":"N","COMPLFL":"N"},{"STUDYID":"CDISCPILOT01","USUBJID":"01-701-1146","MHSEQ":1,"MHTERM":"VERBATIM_0325","MHDECOD":"VERBATIM_0325","MHBODSYS":"(uncoded - no MedDRA SOC in source)","ASTDT":null,"ASTDY":null,"TRTP":"Xanomeline High Dose","TRT01P":"Xanomeline High Dose","TRT01PN":null,"TRT01A":"Xanomeline High Dose","SITEGR1":900,"SITEID":701,"TRTSDT":"2013-05-20","TRTEDT":"2013-06-26","ITTFL":"Y","SAFFL":"Y","EFFFL":"N","COMPLFL":"N"},{"STUDYID":"CDISCPILOT01","USUBJID":"01-701-1146","MHSEQ":17,"MHTERM":"VERBATIM_0361","MHDECOD":"VERBATIM_0361","MHBODSYS":"(uncoded - no MedDRA SOC in source)","ASTDT":"2012-10-27","ASTDY":null,"TRTP":"Xanomeline High Dose","TRT01P":"Xanomeline High Dose","TRT01PN":null,"TRT01A":"Xanomeline High Dose","SITEGR1":900,"SITEID":701,"TRTSDT":"2013-05-20","TRTEDT":"2013-06-26","ITTFL":"Y","SAFFL":"Y","EFFFL":"N","COMPLFL":"N"},{"STUDYID":"CDISCPILOT01","USUBJID":"01-701-1146","MHSEQ":2,"MHTERM":"VERBATIM_0391","MHDECOD":"VERBATIM_0391","MHBODSYS":"(uncoded - no MedDRA SOC in source)","ASTDT":null,"ASTDY":null,"TRTP":"Xanomeline High Dose","TRT01P":"Xanomeline High Dose","TRT01PN":null,"TRT01A":"Xanomeline High Dose","SITEGR1":900,"SITEID":701,"TRTSDT":"2013-05-20","TRTEDT":"2013-06-26","ITTFL":"Y","SAFFL":"Y","EFFFL":"N","COMPLFL":"N"},{"STUDYID":"CDISCPILOT01","USUBJID":"01-701-1146","MHSEQ":3,"MHTERM":"VERBATIM_0443","MHDECOD":"VERBATIM_0443","MHBODSYS":"(uncoded - no MedDRA SOC in source)","ASTDT":null,"ASTDY":null,"TRTP":"Xanomeline High Dose","TRT01P":"Xanomeline High Dose","TRT01PN":null,"TRT01A":"Xanomeline High Dose","SITEGR1":900,"SITEID":701,"TRTSDT":"2013-05-20","TRTEDT":"2013-06-26","ITTFL":"Y","SAFFL":"Y","EFFFL":"N","COMPLFL":"N"},{"STUDYID":"CDISCPILOT01","USUBJID":"01-701-1146","MHSEQ":14,"MHTERM":"VERBATIM_0517","MHDECOD":"VERBATIM_0517","MHBODSYS":"(uncoded - no MedDRA SOC in source)","ASTDT":"2012-03-27","ASTDY":null,"TRTP":"Xanomeline High Dose","TRT01P":"Xanomeline High Dose","TRT01PN":null,"TRT01A":"Xanomeline High Dose","SITEGR1":900,"SITEID":701,"TRTSDT":"2013-05-20","TRTEDT":"2013-06-26","ITTFL":"Y","SAFFL":"Y","EFFFL":"N","COMPLFL":"N"},{"STUDYID":"CDISCPILOT01","USUBJID":"01-701-1146","MHSEQ":10,"MHTERM":"VERBATIM_0815","MHDECOD":"VERBATIM_0815","MHBODSYS":"(uncoded - no MedDRA SOC in source)","ASTDT":null,"ASTDY":null,"TRTP":"Xanomeline High Dose","TRT01P":"Xanomeline High Dose","TRT01PN":null,"TRT01A":"Xanomeline High Dose","SITEGR1":900,"SITEID":701,"TRTSDT":"2013-05-20","TRTEDT":"2013-06-26","ITTFL":"Y","SAFFL":"Y","EFFFL":"N","COMPLFL":"N"},{"STUDYID":"CDISCPILOT01","USUBJID":"01-701-1146","MHSEQ":13,"MHTERM":"VERBATIM_0815","MHDECOD":"VERBATIM_0815","MHBODSYS":"(uncoded - no MedDRA SOC in source)","ASTDT":null,"ASTDY":null,"TRTP":"Xanomeline High Dose","TRT01P":"Xanomeline High Dose","TRT01PN":null,"TRT01A":"Xanomeline High Dose","SITEGR1":900,"SITEID":701,"TRTSDT":"2013-05-20","TRTEDT":"2013-06-26","ITTFL":"Y","SAFFL":"Y","EFFFL":"N","COMPLFL":"N"},{"STUDYID":"CDISCPILOT01","USUBJID":"01-701-1146","MHSEQ":15,"MHTERM":"VERBATIM_0821","MHDECOD":"VERBATIM_0821","MHBODSYS":"(uncoded - no MedDRA SOC in source)","ASTDT":"2012-07-06","ASTDY":null,"TRTP":"Xanomeline High Dose","TRT01P":"Xanomeline High Dose","TRT01PN":null,"TRT01A":"Xanomeline High Dose","SITEGR1":900,"SITEID":701,"TRTSDT":"2013-05-20","TRTEDT":"2013-06-26","ITTFL":"Y","SAFFL":"Y","EFFFL":"N","COMPLFL":"N"},{"STUDYID":"CDISCPILOT01","USUBJID":"01-701-1146","MHSEQ":16,"MHTERM":"VERBATIM_1066","MHDECOD":"VERBATIM_1066","MHBODSYS":"(uncoded - no MedDRA SOC in source)","ASTDT":"2012-09-12","ASTDY":null,"TRTP":"Xanomeline High Dose","TRT01P":"Xanomeline High Dose","TRT01PN":null,"TRT01A":"Xanomeline High Dose","SITEGR1":900,"SITEID":701,"TRTSDT":"2013-05-20","TRTEDT":"2013-06-26","ITTFL":"Y","SAFFL":"Y","EFFFL":"N","COMPLFL":"N"},{"STUDYID":"CDISCPILOT01","USUBJID":"01-701-1146","MHSEQ":12,"MHTERM":"VERBATIM_1117","MHDECOD":"VERBATIM_1117","MHBODSYS":"(uncoded - no MedDRA SOC in source)","ASTDT":null,"ASTDY":null,"TRTP":"Xanomeline High Dose","TRT01P":"Xanomeline High Dose","TRT01PN":null,"TRT01A":"Xanomeline High Dose","SITEGR1":900,"SITEID":701,"TRTSDT":"2013-05-20","TRTEDT":"2013-06-26","ITTFL":"Y","SAFFL":"Y","EFFFL":"N","COMPLFL":"N"},{"STUDYID":"CDISCPILOT01","USUBJID":"01-701-1146","MHSEQ":4,"MHTERM":"VERBATIM_1126","MHDECOD":"VERBATIM_1126","MHBODSYS":"(uncoded - no MedDRA SOC in source)","ASTDT":null,"ASTDY":null,"TRTP":"Xanomeline High Dose","TRT01P":"Xanomeline High Dose","TRT01PN":null,"TRT01A":"Xanomeline High Dose","SITEGR1":900,"SITEID":701,"TRTSDT":"2013-05-20","TRTEDT":"2013-06-26","ITTFL":"Y","SAFFL":"Y","EFFFL":"N","COMPLFL":"N"},{"STUDYID":"CDISCPILOT01","USUBJID":"01-701-1146","MHSEQ":5,"MHTERM":"VERBATIM_1223","MHDECOD":"VERBATIM_1223","MHBODSYS":"(uncoded - no MedDRA SOC in source)","ASTDT":null,"ASTDY":null,"TRTP":"Xanomeline High Dose","TRT01P":"Xanomeline High Dose","TRT01PN":null,"TRT01A":"Xanomeline High Dose","SITEGR1":900,"SITEID":701,"TRTSDT":"2013-05-20","TRTEDT":"2013-06-26","ITTFL":"Y","SAFFL":"Y","EFFFL":"N","COMPLFL":"N"},{"STUDYID":"CDISCPILOT01","USUBJID":"01-701-1146","MHSEQ":6,"MHTERM":"VERBATIM_1376","MHDECOD":"VERBATIM_1376","MHBODSYS":"(uncoded - no MedDRA SOC in source)","ASTDT":null,"ASTDY":null,"TRTP":"Xanomeline High Dose","TRT01P":"Xanomeline High Dose","TRT01PN":null,"TRT01A":"Xanomeline High Dose","SITEGR1":900,"SITEID":701,"TRTSDT":"2013-05-20","TRTEDT":"2013-06-26","ITTFL":"Y","SAFFL":"Y","EFFFL":"N","COMPLFL":"N"},{"STUDYID":"CDISCPILOT01","USUBJID":"01-701-1146","MHSEQ":7,"MHTERM":"VERBATIM_1441","MHDECOD":"VERBATIM_1441","MHBODSYS":"(uncoded - no MedDRA SOC in source)","ASTDT":null,"ASTDY":null,"TRTP":"Xanomeline High Dose","TRT01P":"Xanomeline High Dose","TRT01PN":null,"TRT01A":"Xanomeline High Dose","SITEGR1":900,"SITEID":701,"TRTSDT":"2013-05-20","TRTEDT":"2013-06-26","ITTFL":"Y","SAFFL":"Y","EFFFL":"N","COMPLFL":"N"},{"STUDYID":"CDISCPILOT01","USUBJID":"01-701-1146","MHSEQ":9,"MHTERM":"VERBATIM_1716","MHDECOD":"VERBATIM_1716","MHBODSYS":"(uncoded - no MedDRA SOC in source)","ASTDT":null,"ASTDY":null,"TRTP":"Xanomeline High Dose","TRT01P":"Xanomeline High Dose","TRT01PN":null,"TRT01A":"Xanomeline High Dose","SITEGR1":900,"SITEID":701,"TRTSDT":"2013-05-20","TRTEDT":"2013-06-26","ITTFL":"Y","SAFFL":"Y","EFFFL":"N","COMPLFL":"N"},{"STUDYID":"CDISCPILOT01","USUBJID":"01-701-1146","MHSEQ":8,"MHTERM":"VERBATIM_1769","MHDECOD":"VERBATIM_1769","MHBODSYS":"(uncoded - no MedDRA SOC in source)","ASTDT":null,"ASTDY":null,"TRTP":"Xanomeline High Dose","TRT01P":"Xanomeline High Dose","TRT01PN":null,"TRT01A":"Xanomeline High Dose","SITEGR1":900,"SITEID":701,"TRTSDT":"2013-05-20","TRTEDT":"2013-06-26","ITTFL":"Y","SAFFL":"Y","EFFFL":"N","COMPLFL":"N"},{"STUDYID":"CDISCPILOT01","USUBJID":"01-701-1148","MHSEQ":29,"MHTERM":"ALZHEIMER'S DISEASE","MHDECOD":"ALZHEIMER'S DISEASE","MHBODSYS":"(uncoded - no MedDRA SOC in source)","ASTDT":"2010-12-12","ASTDY":null,"TRTP":"Xanomeline High Dose","TRT01P":"Xanomeline High Dose","TRT01PN":null,"TRT01A":"Xanomeline High Dose","SITEGR1":900,"SITEID":701,"TRTSDT":"2013-08-23","TRTEDT":"2014-02-20","ITTFL":"Y","SAFFL":"Y","EFFFL":"N","COMPLFL":"Y"},{"STUDYID":"CDISCPILOT01","USUBJID":"01-701-1148","MHSEQ":25,"MHTERM":"VERBATIM_0036","MHDECOD":"VERBATIM_0036","MHBODSYS":"(uncoded - no MedDRA SOC in source)","ASTDT":null,"ASTDY":null,"TRTP":"Xanomeline High Dose","TRT01P":"Xanomeline High Dose","TRT01PN":null,"TRT01A":"Xanomeline High Dose","SITEGR1":900,"SITEID":701,"TRTSDT":"2013-08-23","TRTEDT":"2014-02-20","ITTFL":"Y","SAFFL":"Y","EFFFL":"N","COMPLFL":"Y"},{"STUDYID":"CDISCPILOT01","USUBJID":"01-701-1148","MHSEQ":1,"MHTERM":"VERBATIM_0047","MHDECOD":"VERBATIM_0047","MHBODSYS":"(uncoded - no MedDRA SOC in source)","ASTDT":null,"ASTDY":null,"TRTP":"Xanomeline High Dose","TRT01P":"Xanomeline High Dose","TRT01PN":null,"TRT01A":"Xanomeline High Dose","SITEGR1":900,"SITEID":701,"TRTSDT":"2013-08-23","TRTEDT":"2014-02-20","ITTFL":"Y","SAFFL":"Y","EFFFL":"N","COMPLFL":"Y"},{"STUDYID":"CDISCPILOT01","USUBJID":"01-701-1148","MHSEQ":22,"MHTERM":"VERBATIM_0146","MHDECOD":"VERBATIM_0146","MHBODSYS":"(uncoded - no MedDRA SOC in source)","ASTDT":null,"ASTDY":null,"TRTP":"Xanomeline High Dose","TRT01P":"Xanomeline High Dose","TRT01PN":null,"TRT01A":"Xanomeline High Dose","SITEGR1":900,"SITEID":701,"TRTSDT":"2013-08-23","TRTEDT":"2014-02-20","ITTFL":"Y","SAFFL":"Y","EFFFL":"N","COMPLFL":"Y"},{"STUDYID":"CDISCPILOT01","USUBJID":"01-701-1148","MHSEQ":2,"MHTERM":"VERBATIM_0266","MHDECOD":"VERBATIM_0266","MHBODSYS":"(uncoded - no MedDRA SOC in source)","ASTDT":null,"ASTDY":null,"TRTP":"Xanomeline High Dose","TRT01P":"Xanomeline High Dose","TRT01PN":null,"TRT01A":"Xanomeline High Dose","SITEGR1":900,"SITEID":701,"TRTSDT":"2013-08-23","TRTEDT":"2014-02-20","ITTFL":"Y","SAFFL":"Y","EFFFL":"N","COMPLFL":"Y"},{"STUDYID":"CDISCPILOT01","USUBJID":"01-701-1148","MHSEQ":3,"MHTERM":"VERBATIM_0301","MHDECOD":"VERBATIM_0301","MHBODSYS":"(uncoded - no MedDRA SOC in source)","ASTDT":null,"ASTDY":null,"TRTP":"Xanomeline High Dose","TRT01P":"Xanomeline High Dose","TRT01PN":null,"TRT01A":"Xanomeline High Dose","SITEGR1":900,"SITEID":701,"TRTSDT":"2013-08-23","TRTEDT":"2014-02-20","ITTFL":"Y","SAFFL":"Y","EFFFL":"N","COMPLFL":"Y"},{"STUDYID":"CDISCPILOT01","USUBJID":"01-701-1148","MHSEQ":24,"MHTERM":"VERBATIM_0305","MHDECOD":"VERBATIM_0305","MHBODSYS":"(uncoded - no MedDRA SOC in source)","ASTDT":null,"ASTDY":null,"TRTP":"Xanomeline High Dose","TRT01P":"Xanomeline High Dose","TRT01PN":null,"TRT01A":"Xanomeline High Dose","SITEGR1":900,"SITEID":701,"TRTSDT":"2013-08-23","TRTEDT":"2014-02-20","ITTFL":"Y","SAFFL":"Y","EFFFL":"N","COMPLFL":"Y"},{"STUDYID":"CDISCPILOT01","USUBJID":"01-701-1148","MHSEQ":4,"MHTERM":"VERBATIM_0383","MHDECOD":"VERBATIM_0383","MHBODSYS":"(uncoded - no MedDRA SOC in source)","ASTDT":null,"ASTDY":null,"TRTP":"Xanomeline High Dose","TRT01P":"Xanomeline High Dose","TRT01PN":null,"TRT01A":"Xanomeline High Dose","SITEGR1":900,"SITEID":701,"TRTSDT":"2013-08-23","TRTEDT":"2014-02-20","ITTFL":"Y","SAFFL":"Y","EFFFL":"N","COMPLFL":"Y"},{"STUDYID":"CDISCPILOT01","USUBJID":"01-701-1148","MHSEQ":5,"MHTERM":"VERBATIM_0396","MHDECOD":"VERBATIM_0396","MHBODSYS":"(uncoded - no MedDRA SOC in source)","ASTDT":null,"ASTDY":null,"TRTP":"Xanomeline High Dose","TRT01P":"Xanomeline High Dose","TRT01PN":null,"TRT01A":"Xanomeline High Dose","SITEGR1":900,"SITEID":701,"TRTSDT":"2013-08-23","TRTEDT":"2014-02-20","ITTFL":"Y","SAFFL":"Y","EFFFL":"N","COMPLFL":"Y"},{"STUDYID":"CDISCPILOT01","USUBJID":"01-701-1148","MHSEQ":6,"MHTERM":"VERBATIM_0453","MHDECOD":"VERBATIM_0453","MHBODSYS":"(uncoded - no MedDRA SOC in source)","ASTDT":null,"ASTDY":null,"TRTP":"Xanomeline High Dose","TRT01P":"Xanomeline High Dose","TRT01PN":null,"TRT01A":"Xanomeline High Dose","SITEGR1":900,"SITEID":701,"TRTSDT":"2013-08-23","TRTEDT":"2014-02-20","ITTFL":"Y","SAFFL":"Y","EFFFL":"N","COMPLFL":"Y"},{"STUDYID":"CDISCPILOT01","USUBJID":"01-701-1148","MHSEQ":7,"MHTERM":"VERBATIM_0461","MHDECOD":"VERBATIM_0461","MHBODSYS":"(uncoded - no MedDRA SOC in source)","ASTDT":null,"ASTDY":null,"TRTP":"Xanomeline High Dose","TRT01P":"Xanomeline High Dose","TRT01PN":null,"TRT01A":"Xanomeline High Dose","SITEGR1":900,"SITEID":701,"TRTSDT":"2013-08-23","TRTEDT":"2014-02-20","ITTFL":"Y","SAFFL":"Y","EFFFL":"N","COMPLFL":"Y"},{"STUDYID":"CDISCPILOT01","USUBJID":"01-701-1148","MHSEQ":8,"MHTERM":"VERBATIM_0591","MHDECOD":"VERBATIM_0591","MHBODSYS":"(uncoded - no MedDRA SOC in source)","ASTDT":null,"ASTDY":null,"TRTP":"Xanomeline High Dose","TRT01P":"Xanomeline High Dose","TRT01PN":null,"TRT01A":"Xanomeline High Dose","SITEGR1":900,"SITEID":701,"TRTSDT":"2013-08-23","TRTEDT":"2014-02-20","ITTFL":"Y","SAFFL":"Y","EFFFL":"N","COMPLFL":"Y"},{"STUDYID":"CDISCPILOT01","USUBJID":"01-701-1148","MHSEQ":23,"MHTERM":"VERBATIM_0598","MHDECOD":"VERBATIM_0598","MHBODSYS":"(uncoded - no MedDRA SOC in source)","ASTDT":null,"ASTDY":null,"TRTP":"Xanomeline High Dose","TRT01P":"Xanomeline High Dose","TRT01PN":null,"TRT01A":"Xanomeline High Dose","SITEGR1":900,"SITEID":701,"TRTSDT":"2013-08-23","TRTEDT":"2014-02-20","ITTFL":"Y","SAFFL":"Y","EFFFL":"N","COMPLFL":"Y"},{"STUDYID":"CDISCPILOT01","USUBJID":"01-701-1148","MHSEQ":27,"MHTERM":"VERBATIM_0598","MHDECOD":"VERBATIM_0598","MHBODSYS":"(uncoded - no MedDRA SOC in source)","ASTDT":null,"ASTDY":null,"TRTP":"Xanomeline High Dose","TRT01P":"Xanomeline High Dose","TRT01PN":null,"TRT01A":"Xanomeline High Dose","SITEGR1":900,"SITEID":701,"TRTSDT":"2013-08-23","TRTEDT":"2014-02-20","ITTFL":"Y","SAFFL":"Y","EFFFL":"N","COMPLFL":"Y"},{"STUDYID":"CDISCPILOT01","USUBJID":"01-701-1148","MHSEQ":9,"MHTERM":"VERBATIM_0617","MHDECOD":"VERBATIM_0617","MHBODSYS":"(uncoded - no MedDRA SOC in source)","ASTDT":null,"ASTDY":null,"TRTP":"Xanomeline High Dose","TRT01P":"Xanomeline High Dose","TRT01PN":null,"TRT01A":"Xanomeline High Dose","SITEGR1":900,"SITEID":701,"TRTSDT":"2013-08-23","TRTEDT":"2014-02-20","ITTFL":"Y","SAFFL":"Y","EFFFL":"N","COMPLFL":"Y"},{"STUDYID":"CDISCPILOT01","USUBJID":"01-701-1148","MHSEQ":10,"MHTERM":"VERBATIM_0800","MHDECOD":"VERBATIM_0800","MHBODSYS":"(uncoded - no MedDRA SOC in source)","ASTDT":null,"ASTDY":null,"TRTP":"Xanomeline High Dose","TRT01P":"Xanomeline High Dose","TRT01PN":null,"TRT01A":"Xanomeline High Dose","SITEGR1":900,"SITEID":701,"TRTSDT":"2013-08-23","TRTEDT":"2014-02-20","ITTFL":"Y","SAFFL":"Y","EFFFL":"N","COMPLFL":"Y"},{"STUDYID":"CDISCPILOT01","USUBJID":"01-701-1148","MHSEQ":28,"MHTERM":"VERBATIM_0807","MHDECOD":"VERBATIM_0807","MHBODSYS":"(uncoded - no MedDRA SOC in source)","ASTDT":null,"ASTDY":null,"TRTP":"Xanomeline High Dose","TRT01P":"Xanomeline High Dose","TRT01PN":null,"TRT01A":"Xanomeline High Dose","SITEGR1":900,"SITEID":701,"TRTSDT":"2013-08-23","TRTEDT":"2014-02-20","ITTFL":"Y","SAFFL":"Y","EFFFL":"N","COMPLFL":"Y"},{"STUDYID":"CDISCPILOT01","USUBJID":"01-701-1148","MHSEQ":11,"MHTERM":"VERBATIM_0978","MHDECOD":"VERBATIM_0978","MHBODSYS":"(uncoded - no MedDRA SOC in source)","ASTDT":null,"ASTDY":null,"TRTP":"Xanomeline High Dose","TRT01P":"Xanomeline High Dose","TRT01PN":null,"TRT01A":"Xanomeline High Dose","SITEGR1":900,"SITEID":701,"TRTSDT":"2013-08-23","TRTEDT":"2014-02-20","ITTFL":"Y","SAFFL":"Y","EFFFL":"N","COMPLFL":"Y"},{"STUDYID":"CDISCPILOT01","USUBJID":"01-701-1148","MHSEQ":12,"MHTERM":"VERBATIM_0982","MHDECOD":"VERBATIM_0982","MHBODSYS":"(uncoded - no MedDRA SOC in source)","ASTDT":null,"ASTDY":null,"TRTP":"Xanomeline High Dose","TRT01P":"Xanomeline High Dose","TRT01PN":null,"TRT01A":"Xanomeline High Dose","SITEGR1":900,"SITEID":701,"TRTSDT":"2013-08-23","TRTEDT":"2014-02-20","ITTFL":"Y","SAFFL":"Y","EFFFL":"N","COMPLFL":"Y"},{"STUDYID":"CDISCPILOT01","USUBJID":"01-701-1148","MHSEQ":13,"MHTERM":"VERBATIM_1073","MHDECOD":"VERBATIM_1073","MHBODSYS":"(uncoded - no MedDRA SOC in source)","ASTDT":null,"ASTDY":null,"TRTP":"Xanomeline High Dose","TRT01P":"Xanomeline High Dose","TRT01PN":null,"TRT01A":"Xanomeline High Dose","SITEGR1":900,"SITEID":701,"TRTSDT":"2013-08-23","TRTEDT":"2014-02-20","ITTFL":"Y","SAFFL":"Y","EFFFL":"N","COMPLFL":"Y"},{"STUDYID":"CDISCPILOT01","USUBJID":"01-701-1148","MHSEQ":30,"MHTERM":"VERBATIM_1160","MHDECOD":"VERBATIM_1160","MHBODSYS":"(uncoded - no MedDRA SOC in source)","ASTDT":null,"ASTDY":null,"TRTP":"Xanomeline High Dose","TRT01P":"Xanomeline High Dose","TRT01PN":null,"TRT01A":"Xanomeline High Dose","SITEGR1":900,"SITEID":701,"TRTSDT":"2013-08-23","TRTEDT":"2014-02-20","ITTFL":"Y","SAFFL":"Y","EFFFL":"N","COMPLFL":"Y"},{"STUDYID":"CDISCPILOT01","USUBJID":"01-701-1148","MHSEQ":14,"MHTERM":"VERBATIM_1168","MHDECOD":"VERBATIM_1168","MHBODSYS":"(uncoded - no MedDRA SOC in source)","ASTDT":null,"ASTDY":null,"TRTP":"Xanomeline High Dose","TRT01P":"Xanomeline High Dose","TRT01PN":null,"TRT01A":"Xanomeline High Dose","SITEGR1":900,"SITEID":701,"TRTSDT":"2013-08-23","TRTEDT":"2014-02-20","ITTFL":"Y","SAFFL":"Y","EFFFL":"N","COMPLFL":"Y"},{"STUDYID":"CDISCPILOT01","USUBJID":"01-701-1148","MHSEQ":15,"MHTERM":"VERBATIM_1213","MHDECOD":"VERBATIM_1213","MHBODSYS":"(uncoded - no MedDRA SOC in source)","ASTDT":null,"ASTDY":null,"TRTP":"Xanomeline High Dose","TRT01P":"Xanomeline High Dose","TRT01PN":null,"TRT01A":"Xanomeline High Dose","SITEGR1":900,"SITEID":701,"TRTSDT":"2013-08-23","TRTEDT":"2014-02-20","ITTFL":"Y","SAFFL":"Y","EFFFL":"N","COMPLFL":"Y"},{"STUDYID":"CDISCPILOT01","USUBJID":"01-701-1148","MHSEQ":16,"MHTERM":"VERBATIM_1509","MHDECOD":"VERBATIM_1509","MHBODSYS":"(uncoded - no MedDRA SOC in source)","ASTDT":null,"ASTDY":null,"TRTP":"Xanomeline High Dose","TRT01P":"Xanomeline High Dose","TRT01PN":null,"TRT01A":"Xanomeline High Dose","SITEGR1":900,"SITEID":701,"TRTSDT":"2013-08-23","TRTEDT":"2014-02-20","ITTFL":"Y","SAFFL":"Y","EFFFL":"N","COMPLFL":"Y"},{"STUDYID":"CDISCPILOT01","USUBJID":"01-701-1148","MHSEQ":17,"MHTERM":"VERBATIM_1533","MHDECOD":"VERBATIM_1533","MHBODSYS":"(uncoded - no MedDRA SOC in source)","ASTDT":null,"ASTDY":null,"TRTP":"Xanomeline High Dose","TRT01P":"Xanomeline High Dose","TRT01PN":null,"TRT01A":"Xanomeline High Dose","SITEGR1":900,"SITEID":701,"TRTSDT":"2013-08-23","TRTEDT":"2014-02-20","ITTFL":"Y","SAFFL":"Y","EFFFL":"N","COMPLFL":"Y"},{"STUDYID":"CDISCPILOT01","USUBJID":"01-701-1148","MHSEQ":26,"MHTERM":"VERBATIM_1550","MHDECOD":"VERBATIM_1550","MHBODSYS":"(uncoded - no MedDRA SOC in source)","ASTDT":null,"ASTDY":null,"TRTP":"Xanomeline High Dose","TRT01P":"Xanomeline High Dose","TRT01PN":null,"TRT01A":"Xanomeline High Dose","SITEGR1":900,"SITEID":701,"TRTSDT":"2013-08-23","TRTEDT":"2014-02-20","ITTFL":"Y","SAFFL":"Y","EFFFL":"N","COMPLFL":"Y"},{"STUDYID":"CDISCPILOT01","USUBJID":"01-701-1148","MHSEQ":18,"MHTERM":"VERBATIM_1576","MHDECOD":"VERBATIM_1576","MHBODSYS":"(uncoded - no MedDRA SOC in source)","ASTDT":null,"ASTDY":null,"TRTP":"Xanomeline High Dose","TRT01P":"Xanomeline High Dose","TRT01PN":null,"TRT01A":"Xanomeline High Dose","SITEGR1":900,"SITEID":701,"TRTSDT":"2013-08-23","TRTEDT":"2014-02-20","ITTFL":"Y","SAFFL":"Y","EFFFL":"N","COMPLFL":"Y"},{"STUDYID":"CDISCPILOT01","USUBJID":"01-701-1148","MHSEQ":19,"MHTERM":"VERBATIM_1583","MHDECOD":"VERBATIM_1583","MHBODSYS":"(uncoded - no MedDRA SOC in source)","ASTDT":null,"ASTDY":null,"TRTP":"Xanomeline High Dose","TRT01P":"Xanomeline High Dose","TRT01PN":null,"TRT01A":"Xanomeline High Dose","SITEGR1":900,"SITEID":701,"TRTSDT":"2013-08-23","TRTEDT":"2014-02-20","ITTFL":"Y","SAFFL":"Y","EFFFL":"N","COMPLFL":"Y"},{"STUDYID":"CDISCPILOT01","USUBJID":"01-701-1148","MHSEQ":20,"MHTERM":"VERBATIM_1751","MHDECOD":"VERBATIM_1751","MHBODSYS":"(uncoded - no MedDRA SOC in source)","ASTDT":null,"ASTDY":null,"TRTP":"Xanomeline High Dose","TRT01P":"Xanomeline High Dose","TRT01PN":null,"TRT01A":"Xanomeline High Dose","SITEGR1":900,"SITEID":701,"TRTSDT":"2013-08-23","TRTEDT":"2014-02-20","ITTFL":"Y","SAFFL":"Y","EFFFL":"N","COMPLFL":"Y"},{"STUDYID":"CDISCPILOT01","USUBJID":"01-701-1148","MHSEQ":21,"MHTERM":"VERBATIM_1769","MHDECOD":"VERBATIM_1769","MHBODSYS":"(uncoded - no MedDRA SOC in source)","ASTDT":null,"ASTDY":null,"TRTP":"Xanomeline High Dose","TRT01P":"Xanomeline High Dose","TRT01PN":null,"TRT01A":"Xanomeline High Dose","SITEGR1":900,"SITEID":701,"TRTSDT":"2013-08-23","TRTEDT":"2014-02-20","ITTFL":"Y","SAFFL":"Y","EFFFL":"N","COMPLFL":"Y"},{"STUDYID":"CDISCPILOT01","USUBJID":"01-701-1153","MHSEQ":7,"MHTERM":"ALZHEIMER'S DISEASE","MHDECOD":"ALZHEIMER'S DISEASE","MHBODSYS":"(uncoded - no MedDRA SOC in source)","ASTDT":"2005-05-13","ASTDY":null,"TRTP":"Placebo","TRT01P":"Placebo","TRT01PN":null,"TRT01A":"Placebo","SITEGR1":900,"SITEID":701,"TRTSDT":"2013-09-23","TRTEDT":"2014-03-16","ITTFL":"Y","SAFFL":"Y","EFFFL":"N","COMPLFL":"Y"},{"STUDYID":"CDISCPILOT01","USUBJID":"01-701-1153","MHSEQ":6,"MHTERM":"VERBATIM_0120","MHDECOD":"VERBATIM_0120","MHBODSYS":"(uncoded - no MedDRA SOC in source)","ASTDT":null,"ASTDY":null,"TRTP":"Placebo","TRT01P":"Placebo","TRT01PN":null,"TRT01A":"Placebo","SITEGR1":900,"SITEID":701,"TRTSDT":"2013-09-23","TRTEDT":"2014-03-16","ITTFL":"Y","SAFFL":"Y","EFFFL":"N","COMPLFL":"Y"},{"STUDYID":"CDISCPILOT01","USUBJID":"01-701-1153","MHSEQ":8,"MHTERM":"VERBATIM_0239","MHDECOD":"VERBATIM_0239","MHBODSYS":"(uncoded - no MedDRA SOC in source)","ASTDT":null,"ASTDY":null,"TRTP":"Placebo","TRT01P":"Placebo","TRT01PN":null,"TRT01A":"Placebo","SITEGR1":900,"SITEID":701,"TRTSDT":"2013-09-23","TRTEDT":"2014-03-16","ITTFL":"Y","SAFFL":"Y","EFFFL":"N","COMPLFL":"Y"},{"STUDYID":"CDISCPILOT01","USUBJID":"01-701-1153","MHSEQ":1,"MHTERM":"VERBATIM_0301","MHDECOD":"VERBATIM_0301","MHBODSYS":"(uncoded - no MedDRA SOC in source)","ASTDT":null,"ASTDY":null,"TRTP":"Placebo","TRT01P":"Placebo","TRT01PN":null,"TRT01A":"Placebo","SITEGR1":900,"SITEID":701,"TRTSDT":"2013-09-23","TRTEDT":"2014-03-16","ITTFL":"Y","SAFFL":"Y","EFFFL":"N","COMPLFL":"Y"},{"STUDYID":"CDISCPILOT01","USUBJID":"01-701-1153","MHSEQ":2,"MHTERM":"VERBATIM_0390","MHDECOD":"VERBATIM_0390","MHBODSYS":"(uncoded - no MedDRA SOC in source)","ASTDT":null,"ASTDY":null,"TRTP":"Placebo","TRT01P":"Placebo","TRT01PN":null,"TRT01A":"Placebo","SITEGR1":900,"SITEID":701,"TRTSDT":"2013-09-23","TRTEDT":"2014-03-16","ITTFL":"Y","SAFFL":"Y","EFFFL":"N","COMPLFL":"Y"},{"STUDYID":"CDISCPILOT01","USUBJID":"01-701-1153","MHSEQ":9,"MHTERM":"VERBATIM_0688","MHDECOD":"VERBATIM_0688","MHBODSYS":"(uncoded - no MedDRA SOC in source)","ASTDT":null,"ASTDY":null,"TRTP":"Placebo","TRT01P":"Placebo","TRT01PN":null,"TRT01A":"Placebo","SITEGR1":900,"SITEID":701,"TRTSDT":"2013-09-23","TRTEDT":"2014-03-16","ITTFL":"Y","SAFFL":"Y","EFFFL":"N","COMPLFL":"Y"},{"STUDYID":"CDISCPILOT01","USUBJID":"01-701-1153","MHSEQ":3,"MHTERM":"VERBATIM_0705","MHDECOD":"VERBATIM_0705","MHBODSYS":"(uncoded - no MedDRA SOC in source)","ASTDT":null,"ASTDY":null,"TRTP":"Placebo","TRT01P":"Placebo","TRT01PN":null,"TRT01A":"Placebo","SITEGR1":900,"SITEID":701,"TRTSDT":"2013-09-23","TRTEDT":"2014-03-16","ITTFL":"Y","SAFFL":"Y","EFFFL":"N","COMPLFL":"Y"},{"STUDYID":"CDISCPILOT01","USUBJID":"01-701-1153","MHSEQ":4,"MHTERM":"VERBATIM_1443","MHDECOD":"VERBATIM_1443","MHBODSYS":"(uncoded - no MedDRA SOC in source)","ASTDT":null,"ASTDY":null,"TRTP":"Placebo","TRT01P":"Placebo","TRT01PN":null,"TRT01A":"Placebo","SITEGR1":900,"SITEID":701,"TRTSDT":"2013-09-23","TRTEDT":"2014-03-16","ITTFL":"Y","SAFFL":"Y","EFFFL":"N","COMPLFL":"Y"},{"STUDYID":"CDISCPILOT01","USUBJID":"01-701-1153","MHSEQ":5,"MHTERM":"VERBATIM_1751","MHDECOD":"VERBATIM_1751","MHBODSYS":"(uncoded - no MedDRA SOC in source)","ASTDT":null,"ASTDY":null,"TRTP":"Placebo","TRT01P":"Placebo","TRT01PN":null,"TRT01A":"Placebo","SITEGR1":900,"SITEID":701,"TRTSDT":"2013-09-23","TRTEDT":"2014-03-16","ITTFL":"Y","SAFFL":"Y","EFFFL":"N","COMPLFL":"Y"},{"STUDYID":"CDISCPILOT01","USUBJID":"01-701-1153","MHSEQ":10,"MHTERM":"VERBATIM_1769","MHDECOD":"VERBATIM_1769","MHBODSYS":"(uncoded - no MedDRA SOC in source)","ASTDT":null,"ASTDY":null,"TRTP":"Placebo","TRT01P":"Placebo","TRT01PN":null,"TRT01A":"Placebo","SITEGR1":900,"SITEID":701,"TRTSDT":"2013-09-23","TRTEDT":"2014-03-16","ITTFL":"Y","SAFFL":"Y","EFFFL":"N","COMPLFL":"Y"},{"STUDYID":"CDISCPILOT01","USUBJID":"01-701-1180","MHSEQ":2,"MHTERM":"ALZHEIMER'S DISEASE","MHDECOD":"ALZHEIMER'S DISEASE","MHBODSYS":"(uncoded - no MedDRA SOC in source)","ASTDT":"2008-09-21","ASTDY":null,"TRTP":"Xanomeline High Dose","TRT01P":"Xanomeline High Dose","TRT01PN":null,"TRT01A":"Xanomeline High Dose","SITEGR1":900,"SITEID":701,"TRTSDT":"2013-02-12","TRTEDT":"2013-03-18","ITTFL":"Y","SAFFL":"Y","EFFFL":"N","COMPLFL":"N"},{"STUDYID":"CDISCPILOT01","USUBJID":"01-701-1180","MHSEQ":1,"MHTERM":"VERBATIM_0929","MHDECOD":"VERBATIM_0929","MHBODSYS":"(uncoded - no MedDRA SOC in source)","ASTDT":null,"ASTDY":null,"TRTP":"Xanomeline High Dose","TRT01P":"Xanomeline High Dose","TRT01PN":null,"TRT01A":"Xanomeline High Dose","SITEGR1":900,"SITEID":701,"TRTSDT":"2013-02-12","TRTEDT":"2013-03-18","ITTFL":"Y","SAFFL":"Y","EFFFL":"N","COMPLFL":"N"},{"STUDYID":"CDISCPILOT01","USUBJID":"01-701-1181","MHSEQ":22,"MHTERM":"ALZHEIMER'S DISEASE","MHDECOD":"ALZHEIMER'S DISEASE","MHBODSYS":"(uncoded - no MedDRA SOC in source)","ASTDT":"2008-08-26","ASTDY":null,"TRTP":"Xanomeline High Dose","TRT01P":"Xanomeline High Dose","TRT01PN":null,"TRT01A":"Xanomeline Low Dose","SITEGR1":900,"SITEID":701,"TRTSDT":"2013-12-05","TRTEDT":"2013-12-09","ITTFL":"Y","SAFFL":"Y","EFFFL":"N","COMPLFL":"N"},{"STUDYID":"CDISCPILOT01","USUBJID":"01-701-1181","MHSEQ":1,"MHTERM":"VERBATIM_0048","MHDECOD":"VERBATIM_0048","MHBODSYS":"(uncoded - no MedDRA SOC in source)","ASTDT":null,"ASTDY":null,"TRTP":"Xanomeline High Dose","TRT01P":"Xanomeline High Dose","TRT01PN":null,"TRT01A":"Xanomeline Low Dose","SITEGR1":900,"SITEID":701,"TRTSDT":"2013-12-05","TRTEDT":"2013-12-09","ITTFL":"Y","SAFFL":"Y","EFFFL":"N","COMPLFL":"N"},{"STUDYID":"CDISCPILOT01","USUBJID":"01-701-1181","MHSEQ":2,"MHTERM":"VERBATIM_0062","MHDECOD":"VERBATIM_0062","MHBODSYS":"(uncoded - no MedDRA SOC in source)","ASTDT":null,"ASTDY":null,"TRTP":"Xanomeline High Dose","TRT01P":"Xanomeline High Dose","TRT01PN":null,"TRT01A":"Xanomeline Low Dose","SITEGR1":900,"SITEID":701,"TRTSDT":"2013-12-05","TRTEDT":"2013-12-09","ITTFL":"Y","SAFFL":"Y","EFFFL":"N","COMPLFL":"N"},{"STUDYID":"CDISCPILOT01","USUBJID":"01-701-1181","MHSEQ":19,"MHTERM":"VERBATIM_0124","MHDECOD":"VERBATIM_0124","MHBODSYS":"(uncoded - no MedDRA SOC in source)","ASTDT":null,"ASTDY":null,"TRTP":"Xanomeline High Dose","TRT01P":"Xanomeline High Dose","TRT01PN":null,"TRT01A":"Xanomeline Low Dose","SITEGR1":900,"SITEID":701,"TRTSDT":"2013-12-05","TRTEDT":"2013-12-09","ITTFL":"Y","SAFFL":"Y","EFFFL":"N","COMPLFL":"N"},{"STUDYID":"CDISCPILOT01","USUBJID":"01-701-1181","MHSEQ":17,"MHTERM":"VERBATIM_0167","MHDECOD":"VERBATIM_0167","MHBODSYS":"(uncoded - no MedDRA SOC in source)","ASTDT":null,"ASTDY":null,"TRTP":"Xanomeline High Dose","TRT01P":"Xanomeline High Dose","TRT01PN":null,"TRT01A":"Xanomeline Low Dose","SITEGR1":900,"SITEID":701,"TRTSDT":"2013-12-05","TRTEDT":"2013-12-09","ITTFL":"Y","SAFFL":"Y","EFFFL":"N","COMPLFL":"N"},{"STUDYID":"CDISCPILOT01","USUBJID":"01-701-1181","MHSEQ":20,"MHTERM":"VERBATIM_0192","MHDECOD":"VERBATIM_0192","MHBODSYS":"(uncoded - no MedDRA SOC in source)","ASTDT":null,"ASTDY":null,"TRTP":"Xanomeline High Dose","TRT01P":"Xanomeline High Dose","TRT01PN":null,"TRT01A":"Xanomeline Low Dose","SITEGR1":900,"SITEID":701,"TRTSDT":"2013-12-05","TRTEDT":"2013-12-09","ITTFL":"Y","SAFFL":"Y","EFFFL":"N","COMPLFL":"N"},{"STUDYID":"CDISCPILOT01","USUBJID":"01-701-1181","MHSEQ":18,"MHTERM":"VERBATIM_0204","MHDECOD":"VERBATIM_0204","MHBODSYS":"(uncoded - no MedDRA SOC in source)","ASTDT":null,"ASTDY":null,"TRTP":"Xanomeline High Dose","TRT01P":"Xanomeline High Dose","TRT01PN":null,"TRT01A":"Xanomeline Low Dose","SITEGR1":900,"SITEID":701,"TRTSDT":"2013-12-05","TRTEDT":"2013-12-09","ITTFL":"Y","SAFFL":"Y","EFFFL":"N","COMPLFL":"N"},{"STUDYID":"CDISCPILOT01","USUBJID":"01-701-1181","MHSEQ":24,"MHTERM":"VERBATIM_0303","MHDECOD":"VERBATIM_0303","MHBODSYS":"(uncoded - no MedDRA SOC in source)","ASTDT":"2012-06-08","ASTDY":null,"TRTP":"Xanomeline High Dose","TRT01P":"Xanomeline High Dose","TRT01PN":null,"TRT01A":"Xanomeline Low Dose","SITEGR1":900,"SITEID":701,"TRTSDT":"2013-12-05","TRTEDT":"2013-12-09","ITTFL":"Y","SAFFL":"Y","EFFFL":"N","COMPLFL":"N"},{"STUDYID":"CDISCPILOT01","USUBJID":"01-701-1181","MHSEQ":3,"MHTERM":"VERBATIM_0462","MHDECOD":"VERBATIM_0462","MHBODSYS":"(uncoded - no MedDRA SOC in source)","ASTDT":null,"ASTDY":null,"TRTP":"Xanomeline High Dose","TRT01P":"Xanomeline High Dose","TRT01PN":null,"TRT01A":"Xanomeline Low Dose","SITEGR1":900,"SITEID":701,"TRTSDT":"2013-12-05","TRTEDT":"2013-12-09","ITTFL":"Y","SAFFL":"Y","EFFFL":"N","COMPLFL":"N"},{"STUDYID":"CDISCPILOT01","USUBJID":"01-701-1181","MHSEQ":4,"MHTERM":"VERBATIM_0507","MHDECOD":"VERBATIM_0507","MHBODSYS":"(uncoded - no MedDRA SOC in source)","ASTDT":null,"ASTDY":null,"TRTP":"Xanomeline High Dose","TRT01P":"Xanomeline High Dose","TRT01PN":null,"TRT01A":"Xanomeline Low Dose","SITEGR1":900,"SITEID":701,"TRTSDT":"2013-12-05","TRTEDT":"2013-12-09","ITTFL":"Y","SAFFL":"Y","EFFFL":"N","COMPLFL":"N"},{"STUDYID":"CDISCPILOT01","USUBJID":"01-701-1181","MHSEQ":5,"MHTERM":"VERBATIM_0640","MHDECOD":"VERBATIM_0640","MHBODSYS":"(uncoded - no MedDRA SOC in source)","ASTDT":null,"ASTDY":null,"TRTP":"Xanomeline High Dose","TRT01P":"Xanomeline High Dose","TRT01PN":null,"TRT01A":"Xanomeline Low Dose","SITEGR1":900,"SITEID":701,"TRTSDT":"2013-12-05","TRTEDT":"2013-12-09","ITTFL":"Y","SAFFL":"Y","EFFFL":"N","COMPLFL":"N"},{"STUDYID":"CDISCPILOT01","USUBJID":"01-701-1181","MHSEQ":6,"MHTERM":"VERBATIM_0671","MHDECOD":"VERBATIM_0671","MHBODSYS":"(uncoded - no MedDRA SOC in source)","ASTDT":null,"ASTDY":null,"TRTP":"Xanomeline High Dose","TRT01P":"Xanomeline High Dose","TRT01PN":null,"TRT01A":"Xanomeline Low Dose","SITEGR1":900,"SITEID":701,"TRTSDT":"2013-12-05","TRTEDT":"2013-12-09","ITTFL":"Y","SAFFL":"Y","EFFFL":"N","COMPLFL":"N"},{"STUDYID":"CDISCPILOT01","USUBJID":"01-701-1181","MHSEQ":7,"MHTERM":"VERBATIM_0686","MHDECOD":"VERBATIM_0686","MHBODSYS":"(uncoded - no MedDRA SOC in source)","ASTDT":null,"ASTDY":null,"TRTP":"Xanomeline High Dose","TRT01P":"Xanomeline High Dose","TRT01PN":null,"TRT01A":"Xanomeline Low Dose","SITEGR1":900,"SITEID":701,"TRTSDT":"2013-12-05","TRTEDT":"2013-12-09","ITTFL":"Y","SAFFL":"Y","EFFFL":"N","COMPLFL":"N"},{"STUDYID":"CDISCPILOT01","USUBJID":"01-701-1181","MHSEQ":8,"MHTERM":"VERBATIM_0733","MHDECOD":"VERBATIM_0733","MHBODSYS":"(uncoded - no MedDRA SOC in source)","ASTDT":null,"ASTDY":null,"TRTP":"Xanomeline High Dose","TRT01P":"Xanomeline High Dose","TRT01PN":null,"TRT01A":"Xanomeline Low Dose","SITEGR1":900,"SITEID":701,"TRTSDT":"2013-12-05","TRTEDT":"2013-12-09","ITTFL":"Y","SAFFL":"Y","EFFFL":"N","COMPLFL":"N"},{"STUDYID":"CDISCPILOT01","USUBJID":"01-701-1181","MHSEQ":9,"MHTERM":"VERBATIM_0929","MHDECOD":"VERBATIM_0929","MHBODSYS":"(uncoded - no MedDRA SOC in source)","ASTDT":null,"ASTDY":null,"TRTP":"Xanomeline High Dose","TRT01P":"Xanomeline High Dose","TRT01PN":null,"TRT01A":"Xanomeline Low Dose","SITEGR1":900,"SITEID":701,"TRTSDT":"2013-12-05","TRTEDT":"2013-12-09","ITTFL":"Y","SAFFL":"Y","EFFFL":"N","COMPLFL":"N"},{"STUDYID":"CDISCPILOT01","USUBJID":"01-701-1181","MHSEQ":10,"MHTERM":"VERBATIM_0966","MHDECOD":"VERBATIM_0966","MHBODSYS":"(uncoded - no MedDRA SOC in source)","ASTDT":null,"ASTDY":null,"TRTP":"Xanomeline High Dose","TRT01P":"Xanomeline High Dose","TRT01PN":null,"TRT01A":"Xanomeline Low Dose","SITEGR1":900,"SITEID":701,"TRTSDT":"2013-12-05","TRTEDT":"2013-12-09","ITTFL":"Y","SAFFL":"Y","EFFFL":"N","COMPLFL":"N"},{"STUDYID":"CDISCPILOT01","USUBJID":"01-701-1181","MHSEQ":11,"MHTERM":"VERBATIM_0978","MHDECOD":"VERBATIM_0978","MHBODSYS":"(uncoded - no MedDRA SOC in source)","ASTDT":null,"ASTDY":null,"TRTP":"Xanomeline High Dose","TRT01P":"Xanomeline High Dose","TRT01PN":null,"TRT01A":"Xanomeline Low Dose","SITEGR1":900,"SITEID":701,"TRTSDT":"2013-12-05","TRTEDT":"2013-12-09","ITTFL":"Y","SAFFL":"Y","EFFFL":"N","COMPLFL":"N"},{"STUDYID":"CDISCPILOT01","USUBJID":"01-701-1181","MHSEQ":21,"MHTERM":"VERBATIM_1143","MHDECOD":"VERBATIM_1143","MHBODSYS":"(uncoded - no MedDRA SOC in source)","ASTDT":null,"ASTDY":null,"TRTP":"Xanomeline High Dose","TRT01P":"Xanomeline High Dose","TRT01PN":null,"TRT01A":"Xanomeline Low Dose","SITEGR1":900,"SITEID":701,"TRTSDT":"2013-12-05","TRTEDT":"2013-12-09","ITTFL":"Y","SAFFL":"Y","EFFFL":"N","COMPLFL":"N"},{"STUDYID":"CDISCPILOT01","USUBJID":"01-701-1181","MHSEQ":23,"MHTERM":"VERBATIM_1176","MHDECOD":"VERBATIM_1176","MHBODSYS":"(uncoded - no MedDRA SOC in source)","ASTDT":null,"ASTDY":null,"TRTP":"Xanomeline High Dose","TRT01P":"Xanomeline High Dose","TRT01PN":null,"TRT01A":"Xanomeline Low Dose","SITEGR1":900,"SITEID":701,"TRTSDT":"2013-12-05","TRTEDT":"2013-12-09","ITTFL":"Y","SAFFL":"Y","EFFFL":"N","COMPLFL":"N"},{"STUDYID":"CDISCPILOT01","USUBJID":"01-701-1181","MHSEQ":12,"MHTERM":"VERBATIM_1215","MHDECOD":"VERBATIM_1215","MHBODSYS":"(uncoded - no MedDRA SOC in source)","ASTDT":null,"ASTDY":null,"TRTP":"Xanomeline High Dose","TRT01P":"Xanomeline High Dose","TRT01PN":null,"TRT01A":"Xanomeline Low Dose","SITEGR1":900,"SITEID":701,"TRTSDT":"2013-12-05","TRTEDT":"2013-12-09","ITTFL":"Y","SAFFL":"Y","EFFFL":"N","COMPLFL":"N"},{"STUDYID":"CDISCPILOT01","USUBJID":"01-701-1181","MHSEQ":13,"MHTERM":"VERBATIM_1327","MHDECOD":"VERBATIM_1327","MHBODSYS":"(uncoded - no MedDRA SOC in source)","ASTDT":null,"ASTDY":null,"TRTP":"Xanomeline High Dose","TRT01P":"Xanomeline High Dose","TRT01PN":null,"TRT01A":"Xanomeline Low Dose","SITEGR1":900,"SITEID":701,"TRTSDT":"2013-12-05","TRTEDT":"2013-12-09","ITTFL":"Y","SAFFL":"Y","EFFFL":"N","COMPLFL":"N"},{"STUDYID":"CDISCPILOT01","USUBJID":"01-701-1181","MHSEQ":14,"MHTERM":"VERBATIM_1533","MHDECOD":"VERBATIM_1533","MHBODSYS":"(uncoded - no MedDRA SOC in source)","ASTDT":null,"ASTDY":null,"TRTP":"Xanomeline High Dose","TRT01P":"Xanomeline High Dose","TRT01PN":null,"TRT01A":"Xanomeline Low Dose","SITEGR1":900,"SITEID":701,"TRTSDT":"2013-12-05","TRTEDT":"2013-12-09","ITTFL":"Y","SAFFL":"Y","EFFFL":"N","COMPLFL":"N"},{"STUDYID":"CDISCPILOT01","USUBJID":"01-701-1181","MHSEQ":15,"MHTERM":"VERBATIM_1644","MHDECOD":"VERBATIM_1644","MHBODSYS":"(uncoded - no MedDRA SOC in source)","ASTDT":null,"ASTDY":null,"TRTP":"Xanomeline High Dose","TRT01P":"Xanomeline High Dose","TRT01PN":null,"TRT01A":"Xanomeline Low Dose","SITEGR1":900,"SITEID":701,"TRTSDT":"2013-12-05","TRTEDT":"2013-12-09","ITTFL":"Y","SAFFL":"Y","EFFFL":"N","COMPLFL":"N"},{"STUDYID":"CDISCPILOT01","USUBJID":"01-701-1181","MHSEQ":16,"MHTERM":"VERBATIM_1716","MHDECOD":"VERBATIM_1716","MHBODSYS":"(uncoded - no MedDRA SOC in source)","ASTDT":null,"ASTDY":null,"TRTP":"Xanomeline High Dose","TRT01P":"Xanomeline High Dose","TRT01PN":null,"TRT01A":"Xanomeline Low Dose","SITEGR1":900,"SITEID":701,"TRTSDT":"2013-12-05","TRTEDT":"2013-12-09","ITTFL":"Y","SAFFL":"Y","EFFFL":"N","COMPLFL":"N"},{"STUDYID":"CDISCPILOT01","USUBJID":"01-701-1188","MHSEQ":9,"MHTERM":"ALZHEIMER'S DISEASE","MHDECOD":"ALZHEIMER'S DISEASE","MHBODSYS":"(uncoded - no MedDRA SOC in source)","ASTDT":"2005-09-14","ASTDY":null,"TRTP":"Xanomeline Low Dose","TRT01P":"Xanomeline Low Dose","TRT01PN":null,"TRT01A":"Xanomeline Low Dose","SITEGR1":900,"SITEID":701,"TRTSDT":"2013-02-15","TRTEDT":"2013-03-24","ITTFL":"Y","SAFFL":"Y","EFFFL":"N","COMPLFL":"N"},{"STUDYID":"CDISCPILOT01","USUBJID":"01-701-1188","MHSEQ":8,"MHTERM":"VERBATIM_0080","MHDECOD":"VERBATIM_0080","MHBODSYS":"(uncoded - no MedDRA SOC in source)","ASTDT":null,"ASTDY":null,"TRTP":"Xanomeline Low Dose","TRT01P":"Xanomeline Low Dose","TRT01PN":null,"TRT01A":"Xanomeline Low Dose","SITEGR1":900,"SITEID":701,"TRTSDT":"2013-02-15","TRTEDT":"2013-03-24","ITTFL":"Y","SAFFL":"Y","EFFFL":"N","COMPLFL":"N"},{"STUDYID":"CDISCPILOT01","USUBJID":"01-701-1188","MHSEQ":1,"MHTERM":"VERBATIM_0101","MHDECOD":"VERBATIM_0101","MHBODSYS":"(uncoded - no MedDRA SOC in source)","ASTDT":null,"ASTDY":null,"TRTP":"Xanomeline Low Dose","TRT01P":"Xanomeline Low Dose","TRT01PN":null,"TRT01A":"Xanomeline Low Dose","SITEGR1":900,"SITEID":701,"TRTSDT":"2013-02-15","TRTEDT":"2013-03-24","ITTFL":"Y","SAFFL":"Y","EFFFL":"N","COMPLFL":"N"},{"STUDYID":"CDISCPILOT01","USUBJID":"01-701-1188","MHSEQ":6,"MHTERM":"VERBATIM_0138","MHDECOD":"VERBATIM_0138","MHBODSYS":"(uncoded - no MedDRA SOC in source)","ASTDT":null,"ASTDY":null,"TRTP":"Xanomeline Low Dose","TRT01P":"Xanomeline Low Dose","TRT01PN":null,"TRT01A":"Xanomeline Low Dose","SITEGR1":900,"SITEID":701,"TRTSDT":"2013-02-15","TRTEDT":"2013-03-24","ITTFL":"Y","SAFFL":"Y","EFFFL":"N","COMPLFL":"N"},{"STUDYID":"CDISCPILOT01","USUBJID":"01-701-1188","MHSEQ":2,"MHTERM":"VERBATIM_0507","MHDECOD":"VERBATIM_0507","MHBODSYS":"(uncoded - no MedDRA SOC in source)","ASTDT":null,"ASTDY":null,"TRTP":"Xanomeline Low Dose","TRT01P":"Xanomeline Low Dose","TRT01PN":null,"TRT01A":"Xanomeline Low Dose","SITEGR1":900,"SITEID":701,"TRTSDT":"2013-02-15","TRTEDT":"2013-03-24","ITTFL":"Y","SAFFL":"Y","EFFFL":"N","COMPLFL":"N"},{"STUDYID":"CDISCPILOT01","USUBJID":"01-701-1188","MHSEQ":10,"MHTERM":"VERBATIM_1230","MHDECOD":"VERBATIM_1230","MHBODSYS":"(uncoded - no MedDRA SOC in source)","ASTDT":"2011-06-08","ASTDY":null,"TRTP":"Xanomeline Low Dose","TRT01P":"Xanomeline Low Dose","TRT01PN":null,"TRT01A":"Xanomeline Low Dose","SITEGR1":900,"SITEID":701,"TRTSDT":"2013-02-15","TRTEDT":"2013-03-24","ITTFL":"Y","SAFFL":"Y","EFFFL":"N","COMPLFL":"N"},{"STUDYID":"CDISCPILOT01","USUBJID":"01-701-1188","MHSEQ":3,"MHTERM":"VERBATIM_1279","MHDECOD":"VERBATIM_1279","MHBODSYS":"(uncoded - no MedDRA SOC in source)","ASTDT":null,"ASTDY":null,"TRTP":"Xanomeline Low Dose","TRT01P":"Xanomeline Low Dose","TRT01PN":null,"TRT01A":"Xanomeline Low Dose","SITEGR1":900,"SITEID":701,"TRTSDT":"2013-02-15","TRTEDT":"2013-03-24","ITTFL":"Y","SAFFL":"Y","EFFFL":"N","COMPLFL":"N"},{"STUDYID":"CDISCPILOT01","USUBJID":"01-701-1188","MHSEQ":7,"MHTERM":"VERBATIM_1363","MHDECOD":"VERBATIM_1363","MHBODSYS":"(uncoded - no MedDRA SOC in source)","ASTDT":null,"ASTDY":null,"TRTP":"Xanomeline Low Dose","TRT01P":"Xanomeline Low Dose","TRT01PN":null,"TRT01A":"Xanomeline Low Dose","SITEGR1":900,"SITEID":701,"TRTSDT":"2013-02-15","TRTEDT":"2013-03-24","ITTFL":"Y","SAFFL":"Y","EFFFL":"N","COMPLFL":"N"},{"STUDYID":"CDISCPILOT01","USUBJID":"01-701-1188","MHSEQ":4,"MHTERM":"VERBATIM_1729","MHDECOD":"VERBATIM_1729","MHBODSYS":"(uncoded - no MedDRA SOC in source)","ASTDT":null,"ASTDY":null,"TRTP":"Xanomeline Low Dose","TRT01P":"Xanomeline Low Dose","TRT01PN":null,"TRT01A":"Xanomeline Low Dose","SITEGR1":900,"SITEID":701,"TRTSDT":"2013-02-15","TRTEDT":"2013-03-24","ITTFL":"Y","SAFFL":"Y","EFFFL":"N","COMPLFL":"N"},{"STUDYID":"CDISCPILOT01","USUBJID":"01-701-1188","MHSEQ":5,"MHTERM":"VERBATIM_1733","MHDECOD":"VERBATIM_1733","MHBODSYS":"(uncoded - no MedDRA SOC in source)","ASTDT":null,"ASTDY":null,"TRTP":"Xanomeline Low Dose","TRT01P":"Xanomeline Low Dose","TRT01PN":null,"TRT01A":"Xanomeline Low Dose","SITEGR1":900,"SITEID":701,"TRTSDT":"2013-02-15","TRTEDT":"2013-03-24","ITTFL":"Y","SAFFL":"Y","EFFFL":"N","COMPLFL":"N"},{"STUDYID":"CDISCPILOT01","USUBJID":"01-701-1192","MHSEQ":15,"MHTERM":"ALZHEIMER'S DISEASE","MHDECOD":"ALZHEIMER'S DISEASE","MHBODSYS":"(uncoded - no MedDRA SOC in source)","ASTDT":"2009-03-15","ASTDY":null,"TRTP":"Xanomeline Low Dose","TRT01P":"Xanomeline Low Dose","TRT01PN":null,"TRT01A":"Xanomeline Low Dose","SITEGR1":900,"SITEID":701,"TRTSDT":"2012-07-22","TRTEDT":"2013-01-20","ITTFL":"Y","SAFFL":"Y","EFFFL":"N","COMPLFL":"Y"},{"STUDYID":"CDISCPILOT01","USUBJID":"01-701-1192","MHSEQ":11,"MHTERM":"VERBATIM_0301","MHDECOD":"VERBATIM_0301","MHBODSYS":"(uncoded - no MedDRA SOC in source)","ASTDT":null,"ASTDY":null,"TRTP":"Xanomeline Low Dose","TRT01P":"Xanomeline Low Dose","TRT01PN":null,"TRT01A":"Xanomeline Low Dose","SITEGR1":900,"SITEID":701,"TRTSDT":"2012-07-22","TRTEDT":"2013-01-20","ITTFL":"Y","SAFFL":"Y","EFFFL":"N","COMPLFL":"Y"},{"STUDYID":"CDISCPILOT01","USUBJID":"01-701-1192","MHSEQ":9,"MHTERM":"VERBATIM_0435","MHDECOD":"VERBATIM_0435","MHBODSYS":"(uncoded - no MedDRA SOC in source)","ASTDT":null,"ASTDY":null,"TRTP":"Xanomeline Low Dose","TRT01P":"Xanomeline Low Dose","TRT01PN":null,"TRT01A":"Xanomeline Low Dose","SITEGR1":900,"SITEID":701,"TRTSDT":"2012-07-22","TRTEDT":"2013-01-20","ITTFL":"Y","SAFFL":"Y","EFFFL":"N","COMPLFL":"Y"},{"STUDYID":"CDISCPILOT01","USUBJID":"01-701-1192","MHSEQ":1,"MHTERM":"VERBATIM_0507","MHDECOD":"VERBATIM_0507","MHBODSYS":"(uncoded - no MedDRA SOC in source)","ASTDT":null,"ASTDY":null,"TRTP":"Xanomeline Low Dose","TRT01P":"Xanomeline Low Dose","TRT01PN":null,"TRT01A":"Xanomeline Low Dose","SITEGR1":900,"SITEID":701,"TRTSDT":"2012-07-22","TRTEDT":"2013-01-20","ITTFL":"Y","SAFFL":"Y","EFFFL":"N","COMPLFL":"Y"},{"STUDYID":"CDISCPILOT01","USUBJID":"01-701-1192","MHSEQ":18,"MHTERM":"VERBATIM_0576","MHDECOD":"VERBATIM_0576","MHBODSYS":"(uncoded - no MedDRA SOC in source)","ASTDT":"2010-04-22","ASTDY":null,"TRTP":"Xanomeline Low Dose","TRT01P":"Xanomeline Low Dose","TRT01PN":null,"TRT01A":"Xanomeline Low Dose","SITEGR1":900,"SITEID":701,"TRTSDT":"2012-07-22","TRTEDT":"2013-01-20","ITTFL":"Y","SAFFL":"Y","EFFFL":"N","COMPLFL":"Y"},{"STUDYID":"CDISCPILOT01","USUBJID":"01-701-1192","MHSEQ":20,"MHTERM":"VERBATIM_0579","MHDECOD":"VERBATIM_0579","MHBODSYS":"(uncoded - no MedDRA SOC in source)","ASTDT":null,"ASTDY":null,"TRTP":"Xanomeline Low Dose","TRT01P":"Xanomeline Low Dose","TRT01PN":null,"TRT01A":"Xanomeline Low Dose","SITEGR1":900,"SITEID":701,"TRTSDT":"2012-07-22","TRTEDT":"2013-01-20","ITTFL":"Y","SAFFL":"Y","EFFFL":"N","COMPLFL":"Y"},{"STUDYID":"CDISCPILOT01","USUBJID":"01-701-1192","MHSEQ":12,"MHTERM":"VERBATIM_0721","MHDECOD":"VERBATIM_0721","MHBODSYS":"(uncoded - no MedDRA SOC in source)","ASTDT":null,"ASTDY":null,"TRTP":"Xanomeline Low Dose","TRT01P":"Xanomeline Low Dose","TRT01PN":null,"TRT01A":"Xanomeline Low Dose","SITEGR1":900,"SITEID":701,"TRTSDT":"2012-07-22","TRTEDT":"2013-01-20","ITTFL":"Y","SAFFL":"Y","EFFFL":"N","COMPLFL":"Y"},{"STUDYID":"CDISCPILOT01","USUBJID":"01-701-1192","MHSEQ":2,"MHTERM":"VERBATIM_0908","MHDECOD":"VERBATIM_0908","MHBODSYS":"(uncoded - no MedDRA SOC in source)","ASTDT":null,"ASTDY":null,"TRTP":"Xanomeline Low Dose","TRT01P":"Xanomeline Low Dose","TRT01PN":null,"TRT01A":"Xanomeline Low Dose","SITEGR1":900,"SITEID":701,"TRTSDT":"2012-07-22","TRTEDT":"2013-01-20","ITTFL":"Y","SAFFL":"Y","EFFFL":"N","COMPLFL":"Y"},{"STUDYID":"CDISCPILOT01","USUBJID":"01-701-1192","MHSEQ":21,"MHTERM":"VERBATIM_1176","MHDECOD":"VERBATIM_1176","MHBODSYS":"(uncoded - no MedDRA SOC in source)","ASTDT":null,"ASTDY":null,"TRTP":"Xanomeline Low Dose","TRT01P":"Xanomeline Low Dose","TRT01PN":null,"TRT01A":"Xanomeline Low Dose","SITEGR1":900,"SITEID":701,"TRTSDT":"2012-07-22","TRTEDT":"2013-01-20","ITTFL":"Y","SAFFL":"Y","EFFFL":"N","COMPLFL":"Y"},{"STUDYID":"CDISCPILOT01","USUBJID":"01-701-1192","MHSEQ":3,"MHTERM":"VERBATIM_1309","MHDECOD":"VERBATIM_1309","MHBODSYS":"(uncoded - no MedDRA SOC in source)","ASTDT":null,"ASTDY":null,"TRTP":"Xanomeline Low Dose","TRT01P":"Xanomeline Low Dose","TRT01PN":null,"TRT01A":"Xanomeline Low Dose","SITEGR1":900,"SITEID":701,"TRTSDT":"2012-07-22","TRTEDT":"2013-01-20","ITTFL":"Y","SAFFL":"Y","EFFFL":"N","COMPLFL":"Y"},{"STUDYID":"CDISCPILOT01","USUBJID":"01-701-1192","MHSEQ":19,"MHTERM":"VERBATIM_1391","MHDECOD":"VERBATIM_1391","MHBODSYS":"(uncoded - no MedDRA SOC in source)","ASTDT":"2010-04-22","ASTDY":null,"TRTP":"Xanomeline Low Dose","TRT01P":"Xanomeline Low Dose","TRT01PN":null,"TRT01A":"Xanomeline Low Dose","SITEGR1":900,"SITEID":701,"TRTSDT":"2012-07-22","TRTEDT":"2013-01-20","ITTFL":"Y","SAFFL":"Y","EFFFL":"N","COMPLFL":"Y"},{"STUDYID":"CDISCPILOT01","USUBJID":"01-701-1192","MHSEQ":4,"MHTERM":"VERBATIM_1421","MHDECOD":"VERBATIM_1421","MHBODSYS":"(uncoded - no MedDRA SOC in source)","ASTDT":null,"ASTDY":null,"TRTP":"Xanomeline Low Dose","TRT01P":"Xanomeline Low Dose","TRT01PN":null,"TRT01A":"Xanomeline Low Dose","SITEGR1":900,"SITEID":701,"TRTSDT":"2012-07-22","TRTEDT":"2013-01-20","ITTFL":"Y","SAFFL":"Y","EFFFL":"N","COMPLFL":"Y"},{"STUDYID":"CDISCPILOT01","USUBJID":"01-701-1192","MHSEQ":5,"MHTERM":"VERBATIM_1432","MHDECOD":"VERBATIM_1432","MHBODSYS":"(uncoded - no MedDRA SOC in source)","ASTDT":null,"ASTDY":null,"TRTP":"Xanomeline Low Dose","TRT01P":"Xanomeline Low Dose","TRT01PN":null,"TRT01A":"Xanomeline Low Dose","SITEGR1":900,"SITEID":701,"TRTSDT":"2012-07-22","TRTEDT":"2013-01-20","ITTFL":"Y","SAFFL":"Y","EFFFL":"N","COMPLFL":"Y"},{"STUDYID":"CDISCPILOT01","USUBJID":"01-701-1192","MHSEQ":13,"MHTERM":"VERBATIM_1436","MHDECOD":"VERBATIM_1436","MHBODSYS":"(uncoded - no MedDRA SOC in source)","ASTDT":null,"ASTDY":null,"TRTP":"Xanomeline Low Dose","TRT01P":"Xanomeline Low Dose","TRT01PN":null,"TRT01A":"Xanomeline Low Dose","SITEGR1":900,"SITEID":701,"TRTSDT":"2012-07-22","TRTEDT":"2013-01-20","ITTFL":"Y","SAFFL":"Y","EFFFL":"N","COMPLFL":"Y"},{"STUDYID":"CDISCPILOT01","USUBJID":"01-701-1192","MHSEQ":14,"MHTERM":"VERBATIM_1436","MHDECOD":"VERBATIM_1436","MHBODSYS":"(uncoded - no MedDRA SOC in source)","ASTDT":null,"ASTDY":null,"TRTP":"Xanomeline Low Dose","TRT01P":"Xanomeline Low Dose","TRT01PN":null,"TRT01A":"Xanomeline Low Dose","SITEGR1":900,"SITEID":701,"TRTSDT":"2012-07-22","TRTEDT":"2013-01-20","ITTFL":"Y","SAFFL":"Y","EFFFL":"N","COMPLFL":"Y"},{"STUDYID":"CDISCPILOT01","USUBJID":"01-701-1192","MHSEQ":10,"MHTERM":"VERBATIM_1475","MHDECOD":"VERBATIM_1475","MHBODSYS":"(uncoded - no MedDRA SOC in source)","ASTDT":null,"ASTDY":null,"TRTP":"Xanomeline Low Dose","TRT01P":"Xanomeline Low Dose","TRT01PN":null,"TRT01A":"Xanomeline Low Dose","SITEGR1":900,"SITEID":701,"TRTSDT":"2012-07-22","TRTEDT":"2013-01-20","ITTFL":"Y","SAFFL":"Y","EFFFL":"N","COMPLFL":"Y"},{"STUDYID":"CDISCPILOT01","USUBJID":"01-701-1192","MHSEQ":22,"MHTERM":"VERBATIM_1533","MHDECOD":"VERBATIM_1533","MHBODSYS":"(uncoded - no MedDRA SOC in source)","ASTDT":null,"ASTDY":null,"TRTP":"Xanomeline Low Dose","TRT01P":"Xanomeline Low Dose","TRT01PN":null,"TRT01A":"Xanomeline Low Dose","SITEGR1":900,"SITEID":701,"TRTSDT":"2012-07-22","TRTEDT":"2013-01-20","ITTFL":"Y","SAFFL":"Y","EFFFL":"N","COMPLFL":"Y"},{"STUDYID":"CDISCPILOT01","USUBJID":"01-701-1192","MHSEQ":16,"MHTERM":"VERBATIM_1562","MHDECOD":"VERBATIM_1562","MHBODSYS":"(uncoded - no MedDRA SOC in source)","ASTDT":null,"ASTDY":null,"TRTP":"Xanomeline Low Dose","TRT01P":"Xanomeline Low Dose","TRT01PN":null,"TRT01A":"Xanomeline Low Dose","SITEGR1":900,"SITEID":701,"TRTSDT":"2012-07-22","TRTEDT":"2013-01-20","ITTFL":"Y","SAFFL":"Y","EFFFL":"N","COMPLFL":"Y"},{"STUDYID":"CDISCPILOT01","USUBJID":"01-701-1192","MHSEQ":6,"MHTERM":"VERBATIM_1674","MHDECOD":"VERBATIM_1674","MHBODSYS":"(uncoded - no MedDRA SOC in source)","ASTDT":null,"ASTDY":null,"TRTP":"Xanomeline Low Dose","TRT01P":"Xanomeline Low Dose","TRT01PN":null,"TRT01A":"Xanomeline Low Dose","SITEGR1":900,"SITEID":701,"TRTSDT":"2012-07-22","TRTEDT":"2013-01-20","ITTFL":"Y","SAFFL":"Y","EFFFL":"N","COMPLFL":"Y"},{"STUDYID":"CDISCPILOT01","USUBJID":"01-701-1192","MHSEQ":7,"MHTERM":"VERBATIM_1677","MHDECOD":"VERBATIM_1677","MHBODSYS":"(uncoded - no MedDRA SOC in source)","ASTDT":null,"ASTDY":null,"TRTP":"Xanomeline Low Dose","TRT01P":"Xanomeline Low Dose","TRT01PN":null,"TRT01A":"Xanomeline Low Dose","SITEGR1":900,"SITEID":701,"TRTSDT":"2012-07-22","TRTEDT":"2013-01-20","ITTFL":"Y","SAFFL":"Y","EFFFL":"N","COMPLFL":"Y"},{"STUDYID":"CDISCPILOT01","USUBJID":"01-701-1192","MHSEQ":17,"MHTERM":"VERBATIM_1703","MHDECOD":"VERBATIM_1703","MHBODSYS":"(uncoded - no MedDRA SOC in source)","ASTDT":null,"ASTDY":null,"TRTP":"Xanomeline Low Dose","TRT01P":"Xanomeline Low Dose","TRT01PN":null,"TRT01A":"Xanomeline Low Dose","SITEGR1":900,"SITEID":701,"TRTSDT":"2012-07-22","TRTEDT":"2013-01-20","ITTFL":"Y","SAFFL":"Y","EFFFL":"N","COMPLFL":"Y"},{"STUDYID":"CDISCPILOT01","USUBJID":"01-701-1192","MHSEQ":8,"MHTERM":"VERBATIM_1716","MHDECOD":"VERBATIM_1716","MHBODSYS":"(uncoded - no MedDRA SOC in source)","ASTDT":null,"ASTDY":null,"TRTP":"Xanomeline Low Dose","TRT01P":"Xanomeline Low Dose","TRT01PN":null,"TRT01A":"Xanomeline Low Dose","SITEGR1":900,"SITEID":701,"TRTSDT":"2012-07-22","TRTEDT":"2013-01-20","ITTFL":"Y","SAFFL":"Y","EFFFL":"N","COMPLFL":"Y"},{"STUDYID":"CDISCPILOT01","USUBJID":"01-701-1203","MHSEQ":10,"MHTERM":"ALZHEIMER'S DISEASE","MHDECOD":"ALZHEIMER'S DISEASE","MHBODSYS":"(uncoded - no MedDRA SOC in source)","ASTDT":"2011-04-19","ASTDY":null,"TRTP":"Placebo","TRT01P":"Placebo","TRT01PN":null,"TRT01A":"Placebo","SITEGR1":900,"SITEID":701,"TRTSDT":"2013-02-02","TRTEDT":"2013-08-03","ITTFL":"Y","SAFFL":"Y","EFFFL":"N","COMPLFL":"Y"},{"STUDYID":"CDISCPILOT01","USUBJID":"01-701-1203","MHSEQ":1,"MHTERM":"VERBATIM_0287","MHDECOD":"VERBATIM_0287","MHBODSYS":"(uncoded - no MedDRA SOC in source)","ASTDT":null,"ASTDY":null,"TRTP":"Placebo","TRT01P":"Placebo","TRT01PN":null,"TRT01A":"Placebo","SITEGR1":900,"SITEID":701,"TRTSDT":"2013-02-02","TRTEDT":"2013-08-03","ITTFL":"Y","SAFFL":"Y","EFFFL":"N","COMPLFL":"Y"},{"STUDYID":"CDISCPILOT01","USUBJID":"01-701-1203","MHSEQ":2,"MHTERM":"VERBATIM_0308","MHDECOD":"VERBATIM_0308","MHBODSYS":"(uncoded - no MedDRA SOC in source)","ASTDT":null,"ASTDY":null,"TRTP":"Placebo","TRT01P":"Placebo","TRT01PN":null,"TRT01A":"Placebo","SITEGR1":900,"SITEID":701,"TRTSDT":"2013-02-02","TRTEDT":"2013-08-03","ITTFL":"Y","SAFFL":"Y","EFFFL":"N","COMPLFL":"Y"},{"STUDYID":"CDISCPILOT01","USUBJID":"01-701-1203","MHSEQ":3,"MHTERM":"VERBATIM_0507","MHDECOD":"VERBATIM_0507","MHBODSYS":"(uncoded - no MedDRA SOC in source)","ASTDT":null,"ASTDY":null,"TRTP":"Placebo","TRT01P":"Placebo","TRT01PN":null,"TRT01A":"Placebo","SITEGR1":900,"SITEID":701,"TRTSDT":"2013-02-02","TRTEDT":"2013-08-03","ITTFL":"Y","SAFFL":"Y","EFFFL":"N","COMPLFL":"Y"},{"STUDYID":"CDISCPILOT01","USUBJID":"01-701-1203","MHSEQ":6,"MHTERM":"VERBATIM_0606","MHDECOD":"VERBATIM_0606","MHBODSYS":"(uncoded - no MedDRA SOC in source)","ASTDT":null,"ASTDY":null,"TRTP":"Placebo","TRT01P":"Placebo","TRT01PN":null,"TRT01A":"Placebo","SITEGR1":900,"SITEID":701,"TRTSDT":"2013-02-02","TRTEDT":"2013-08-03","ITTFL":"Y","SAFFL":"Y","EFFFL":"N","COMPLFL":"Y"},{"STUDYID":"CDISCPILOT01","USUBJID":"01-701-1203","MHSEQ":5,"MHTERM":"VERBATIM_0682","MHDECOD":"VERBATIM_0682","MHBODSYS":"(uncoded - no MedDRA SOC in source)","ASTDT":null,"ASTDY":null,"TRTP":"Placebo","TRT01P":"Placebo","TRT01PN":null,"TRT01A":"Placebo","SITEGR1":900,"SITEID":701,"TRTSDT":"2013-02-02","TRTEDT":"2013-08-03","ITTFL":"Y","SAFFL":"Y","EFFFL":"N","COMPLFL":"Y"},{"STUDYID":"CDISCPILOT01","USUBJID":"01-701-1203","MHSEQ":8,"MHTERM":"VERBATIM_1484","MHDECOD":"VERBATIM_1484","MHBODSYS":"(uncoded - no MedDRA SOC in source)","ASTDT":null,"ASTDY":null,"TRTP":"Placebo","TRT01P":"Placebo","TRT01PN":null,"TRT01A":"Placebo","SITEGR1":900,"SITEID":701,"TRTSDT":"2013-02-02","TRTEDT":"2013-08-03","ITTFL":"Y","SAFFL":"Y","EFFFL":"N","COMPLFL":"Y"},{"STUDYID":"CDISCPILOT01","USUBJID":"01-701-1203","MHSEQ":9,"MHTERM":"VERBATIM_1487","MHDECOD":"VERBATIM_1487","MHBODSYS":"(uncoded - no MedDRA SOC in source)","ASTDT":null,"ASTDY":null,"TRTP":"Placebo","TRT01P":"Placebo","TRT01PN":null,"TRT01A":"Placebo","SITEGR1":900,"SITEID":701,"TRTSDT":"2013-02-02","TRTEDT":"2013-08-03","ITTFL":"Y","SAFFL":"Y","EFFFL":"N","COMPLFL":"Y"},{"STUDYID":"CDISCPILOT01","USUBJID":"01-701-1203","MHSEQ":4,"MHTERM":"VERBATIM_1491","MHDECOD":"VERBATIM_1491","MHBODSYS":"(uncoded - no MedDRA SOC in source)","ASTDT":null,"ASTDY":null,"TRTP":"Placebo","TRT01P":"Placebo","TRT01PN":null,"TRT01A":"Placebo","SITEGR1":900,"SITEID":701,"TRTSDT":"2013-02-02","TRTEDT":"2013-08-03","ITTFL":"Y","SAFFL":"Y","EFFFL":"N","COMPLFL":"Y"},{"STUDYID":"CDISCPILOT01","USUBJID":"01-701-1203","MHSEQ":7,"MHTERM":"VERBATIM_1506","MHDECOD":"VERBATIM_1506","MHBODSYS":"(uncoded - no MedDRA SOC in source)","ASTDT":null,"ASTDY":null,"TRTP":"Placebo","TRT01P":"Placebo","TRT01PN":null,"TRT01A":"Placebo","SITEGR1":900,"SITEID":701,"TRTSDT":"2013-02-02","TRTEDT":"2013-08-03","ITTFL":"Y","SAFFL":"Y","EFFFL":"N","COMPLFL":"Y"},{"STUDYID":"CDISCPILOT01","USUBJID":"01-701-1211","MHSEQ":8,"MHTERM":"ALZHEIMER'S DISEASE","MHDECOD":"ALZHEIMER'S DISEASE","MHBODSYS":"(uncoded - no MedDRA SOC in source)","ASTDT":"2010-03-19","ASTDY":null,"TRTP":"Xanomeline Low Dose","TRT01P":"Xanomeline Low Dose","TRT01PN":null,"TRT01A":"Xanomeline Low Dose","SITEGR1":900,"SITEID":701,"TRTSDT":"2012-11-15","TRTEDT":"2013-01-12","ITTFL":"Y","SAFFL":"Y","EFFFL":"N","COMPLFL":"N"},{"STUDYID":"CDISCPILOT01","USUBJID":"01-701-1211","MHSEQ":1,"MHTERM":"VERBATIM_0200","MHDECOD":"VERBATIM_0200","MHBODSYS":"(uncoded - no MedDRA SOC in source)","ASTDT":null,"ASTDY":null,"TRTP":"Xanomeline Low Dose","TRT01P":"Xanomeline Low Dose","TRT01PN":null,"TRT01A":"Xanomeline Low Dose","SITEGR1":900,"SITEID":701,"TRTSDT":"2012-11-15","TRTEDT":"2013-01-12","ITTFL":"Y","SAFFL":"Y","EFFFL":"N","COMPLFL":"N"},{"STUDYID":"CDISCPILOT01","USUBJID":"01-701-1211","MHSEQ":2,"MHTERM":"VERBATIM_0713","MHDECOD":"VERBATIM_0713","MHBODSYS":"(uncoded - no MedDRA SOC in source)","ASTDT":null,"ASTDY":null,"TRTP":"Xanomeline Low Dose","TRT01P":"Xanomeline Low Dose","TRT01PN":null,"TRT01A":"Xanomeline Low Dose","SITEGR1":900,"SITEID":701,"TRTSDT":"2012-11-15","TRTEDT":"2013-01-12","ITTFL":"Y","SAFFL":"Y","EFFFL":"N","COMPLFL":"N"},{"STUDYID":"CDISCPILOT01","USUBJID":"01-701-1211","MHSEQ":9,"MHTERM":"VERBATIM_0859","MHDECOD":"VERBATIM_0859","MHBODSYS":"(uncoded - no MedDRA SOC in source)","ASTDT":null,"ASTDY":null,"TRTP":"Xanomeline Low Dose","TRT01P":"Xanomeline Low Dose","TRT01PN":null,"TRT01A":"Xanomeline Low Dose","SITEGR1":900,"SITEID":701,"TRTSDT":"2012-11-15","TRTEDT":"2013-01-12","ITTFL":"Y","SAFFL":"Y","EFFFL":"N","COMPLFL":"N"},{"STUDYID":"CDISCPILOT01","USUBJID":"01-701-1211","MHSEQ":6,"MHTERM":"VERBATIM_0936","MHDECOD":"VERBATIM_0936","MHBODSYS":"(uncoded - no MedDRA SOC in source)","ASTDT":null,"ASTDY":null,"TRTP":"Xanomeline Low Dose","TRT01P":"Xanomeline Low Dose","TRT01PN":null,"TRT01A":"Xanomeline Low Dose","SITEGR1":900,"SITEID":701,"TRTSDT":"2012-11-15","TRTEDT":"2013-01-12","ITTFL":"Y","SAFFL":"Y","EFFFL":"N","COMPLFL":"N"},{"STUDYID":"CDISCPILOT01","USUBJID":"01-701-1211","MHSEQ":10,"MHTERM":"VERBATIM_0948","MHDECOD":"VERBATIM_0948","MHBODSYS":"(uncoded - no MedDRA SOC in source)","ASTDT":null,"ASTDY":null,"TRTP":"Xanomeline Low Dose","TRT01P":"Xanomeline Low Dose","TRT01PN":null,"TRT01A":"Xanomeline Low Dose","SITEGR1":900,"SITEID":701,"TRTSDT":"2012-11-15","TRTEDT":"2013-01-12","ITTFL":"Y","SAFFL":"Y","EFFFL":"N","COMPLFL":"N"},{"STUDYID":"CDISCPILOT01","USUBJID":"01-701-1211","MHSEQ":3,"MHTERM":"VERBATIM_1126","MHDECOD":"VERBATIM_1126","MHBODSYS":"(uncoded - no MedDRA SOC in source)","ASTDT":null,"ASTDY":null,"TRTP":"Xanomeline Low Dose","TRT01P":"Xanomeline Low Dose","TRT01PN":null,"TRT01A":"Xanomeline Low Dose","SITEGR1":900,"SITEID":701,"TRTSDT":"2012-11-15","TRTEDT":"2013-01-12","ITTFL":"Y","SAFFL":"Y","EFFFL":"N","COMPLFL":"N"},{"STUDYID":"CDISCPILOT01","USUBJID":"01-701-1211","MHSEQ":7,"MHTERM":"VERBATIM_1498","MHDECOD":"VERBATIM_1498","MHBODSYS":"(uncoded - no MedDRA SOC in source)","ASTDT":null,"ASTDY":null,"TRTP":"Xanomeline Low Dose","TRT01P":"Xanomeline Low Dose","TRT01PN":null,"TRT01A":"Xanomeline Low Dose","SITEGR1":900,"SITEID":701,"TRTSDT":"2012-11-15","TRTEDT":"2013-01-12","ITTFL":"Y","SAFFL":"Y","EFFFL":"N","COMPLFL":"N"},{"STUDYID":"CDISCPILOT01","USUBJID":"01-701-1211","MHSEQ":4,"MHTERM":"VERBATIM_1573","MHDECOD":"VERBATIM_1573","MHBODSYS":"(uncoded - no MedDRA SOC in source)","ASTDT":null,"ASTDY":null,"TRTP":"Xanomeline Low Dose","TRT01P":"Xanomeline Low Dose","TRT01PN":null,"TRT01A":"Xanomeline Low Dose","SITEGR1":900,"SITEID":701,"TRTSDT":"2012-11-15","TRTEDT":"2013-01-12","ITTFL":"Y","SAFFL":"Y","EFFFL":"N","COMPLFL":"N"},{"STUDYID":"CDISCPILOT01","USUBJID":"01-701-1211","MHSEQ":5,"MHTERM":"VERBATIM_1716","MHDECOD":"VERBATIM_1716","MHBODSYS":"(uncoded - no MedDRA SOC in source)","ASTDT":null,"ASTDY":null,"TRTP":"Xanomeline Low Dose","TRT01P":"Xanomeline Low Dose","TRT01PN":null,"TRT01A":"Xanomeline Low Dose","SITEGR1":900,"SITEID":701,"TRTSDT":"2012-11-15","TRTEDT":"2013-01-12","ITTFL":"Y","SAFFL":"Y","EFFFL":"N","COMPLFL":"N"},{"STUDYID":"CDISCPILOT01","USUBJID":"01-701-1234","MHSEQ":12,"MHTERM":"ALZHEIMER'S DISEASE","MHDECOD":"ALZHEIMER'S DISEASE","MHBODSYS":"(uncoded - no MedDRA SOC in source)","ASTDT":"2006-08-11","ASTDY":null,"TRTP":"Placebo","TRT01P":"Placebo","TRT01PN":null,"TRT01A":"Placebo","SITEGR1":900,"SITEID":701,"TRTSDT":"2013-03-30","TRTEDT":"2013-09-22","ITTFL":"Y","SAFFL":"Y","EFFFL":"N","COMPLFL":"Y"},{"STUDYID":"CDISCPILOT01","USUBJID":"01-701-1234","MHSEQ":6,"MHTERM":"VERBATIM_0071","MHDECOD":"VERBATIM_0071","MHBODSYS":"(uncoded - no MedDRA SOC in source)","ASTDT":null,"ASTDY":null,"TRTP":"Placebo","TRT01P":"Placebo","TRT01PN":null,"TRT01A":"Placebo","SITEGR1":900,"SITEID":701,"TRTSDT":"2013-03-30","TRTEDT":"2013-09-22","ITTFL":"Y","SAFFL":"Y","EFFFL":"N","COMPLFL":"Y"},{"STUDYID":"CDISCPILOT01","USUBJID":"01-701-1234","MHSEQ":15,"MHTERM":"VERBATIM_0164","MHDECOD":"VERBATIM_0164","MHBODSYS":"(uncoded - no MedDRA SOC in source)","ASTDT":"2013-03-20","ASTDY":null,"TRTP":"Placebo","TRT01P":"Placebo","TRT01PN":null,"TRT01A":"Placebo","SITEGR1":900,"SITEID":701,"TRTSDT":"2013-03-30","TRTEDT":"2013-09-22","ITTFL":"Y","SAFFL":"Y","EFFFL":"N","COMPLFL":"Y"},{"STUDYID":"CDISCPILOT01","USUBJID":"01-701-1234","MHSEQ":8,"MHTERM":"VERBATIM_0177","MHDECOD":"VERBATIM_0177","MHBODSYS":"(uncoded - no MedDRA SOC in source)","ASTDT":null,"ASTDY":null,"TRTP":"Placebo","TRT01P":"Placebo","TRT01PN":null,"TRT01A":"Placebo","SITEGR1":900,"SITEID":701,"TRTSDT":"2013-03-30","TRTEDT":"2013-09-22","ITTFL":"Y","SAFFL":"Y","EFFFL":"N","COMPLFL":"Y"},{"STUDYID":"CDISCPILOT01","USUBJID":"01-701-1234","MHSEQ":4,"MHTERM":"VERBATIM_0357","MHDECOD":"VERBATIM_0357","MHBODSYS":"(uncoded - no MedDRA SOC in source)","ASTDT":null,"ASTDY":null,"TRTP":"Placebo","TRT01P":"Placebo","TRT01PN":null,"TRT01A":"Placebo","SITEGR1":900,"SITEID":701,"TRTSDT":"2013-03-30","TRTEDT":"2013-09-22","ITTFL":"Y","SAFFL":"Y","EFFFL":"N","COMPLFL":"Y"},{"STUDYID":"CDISCPILOT01","USUBJID":"01-701-1234","MHSEQ":5,"MHTERM":"VERBATIM_0500","MHDECOD":"VERBATIM_0500","MHBODSYS":"(uncoded - no MedDRA SOC in source)","ASTDT":null,"ASTDY":null,"TRTP":"Placebo","TRT01P":"Placebo","TRT01PN":null,"TRT01A":"Placebo","SITEGR1":900,"SITEID":701,"TRTSDT":"2013-03-30","TRTEDT":"2013-09-22","ITTFL":"Y","SAFFL":"Y","EFFFL":"N","COMPLFL":"Y"},{"STUDYID":"CDISCPILOT01","USUBJID":"01-701-1234","MHSEQ":7,"MHTERM":"VERBATIM_0500","MHDECOD":"VERBATIM_0500","MHBODSYS":"(uncoded - no MedDRA SOC in source)","ASTDT":null,"ASTDY":null,"TRTP":"Placebo","TRT01P":"Placebo","TRT01PN":null,"TRT01A":"Placebo","SITEGR1":900,"SITEID":701,"TRTSDT":"2013-03-30","TRTEDT":"2013-09-22","ITTFL":"Y","SAFFL":"Y","EFFFL":"N","COMPLFL":"Y"},{"STUDYID":"CDISCPILOT01","USUBJID":"01-701-1234","MHSEQ":1,"MHTERM":"VERBATIM_0507","MHDECOD":"VERBATIM_0507","MHBODSYS":"(uncoded - no MedDRA SOC in source)","ASTDT":null,"ASTDY":null,"TRTP":"Placebo","TRT01P":"Placebo","TRT01PN":null,"TRT01A":"Placebo","SITEGR1":900,"SITEID":701,"TRTSDT":"2013-03-30","TRTEDT":"2013-09-22","ITTFL":"Y","SAFFL":"Y","EFFFL":"N","COMPLFL":"Y"},{"STUDYID":"CDISCPILOT01","USUBJID":"01-701-1234","MHSEQ":9,"MHTERM":"VERBATIM_0638","MHDECOD":"VERBATIM_0638","MHBODSYS":"(uncoded - no MedDRA SOC in source)","ASTDT":null,"ASTDY":null,"TRTP":"Placebo","TRT01P":"Placebo","TRT01PN":null,"TRT01A":"Placebo","SITEGR1":900,"SITEID":701,"TRTSDT":"2013-03-30","TRTEDT":"2013-09-22","ITTFL":"Y","SAFFL":"Y","EFFFL":"N","COMPLFL":"Y"},{"STUDYID":"CDISCPILOT01","USUBJID":"01-701-1234","MHSEQ":10,"MHTERM":"VERBATIM_0747","MHDECOD":"VERBATIM_0747","MHBODSYS":"(uncoded - no MedDRA SOC in source)","ASTDT":null,"ASTDY":null,"TRTP":"Placebo","TRT01P":"Placebo","TRT01PN":null,"TRT01A":"Placebo","SITEGR1":900,"SITEID":701,"TRTSDT":"2013-03-30","TRTEDT":"2013-09-22","ITTFL":"Y","SAFFL":"Y","EFFFL":"N","COMPLFL":"Y"},{"STUDYID":"CDISCPILOT01","USUBJID":"01-701-1234","MHSEQ":11,"MHTERM":"VERBATIM_0881","MHDECOD":"VERBATIM_0881","MHBODSYS":"(uncoded - no MedDRA SOC in source)","ASTDT":null,"ASTDY":null,"TRTP":"Placebo","TRT01P":"Placebo","TRT01PN":null,"TRT01A":"Placebo","SITEGR1":900,"SITEID":701,"TRTSDT":"2013-03-30","TRTEDT":"2013-09-22","ITTFL":"Y","SAFFL":"Y","EFFFL":"N","COMPLFL":"Y"},{"STUDYID":"CDISCPILOT01","USUBJID":"01-701-1234","MHSEQ":13,"MHTERM":"VERBATIM_1078","MHDECOD":"VERBATIM_1078","MHBODSYS":"(uncoded - no MedDRA SOC in source)","ASTDT":null,"ASTDY":null,"TRTP":"Placebo","TRT01P":"Placebo","TRT01PN":null,"TRT01A":"Placebo","SITEGR1":900,"SITEID":701,"TRTSDT":"2013-03-30","TRTEDT":"2013-09-22","ITTFL":"Y","SAFFL":"Y","EFFFL":"N","COMPLFL":"Y"},{"STUDYID":"CDISCPILOT01","USUBJID":"01-701-1234","MHSEQ":14,"MHTERM":"VERBATIM_1323","MHDECOD":"VERBATIM_1323","MHBODSYS":"(uncoded - no MedDRA SOC in source)","ASTDT":null,"ASTDY":null,"TRTP":"Placebo","TRT01P":"Placebo","TRT01PN":null,"TRT01A":"Placebo","SITEGR1":900,"SITEID":701,"TRTSDT":"2013-03-30","TRTEDT":"2013-09-22","ITTFL":"Y","SAFFL":"Y","EFFFL":"N","COMPLFL":"Y"},{"STUDYID":"CDISCPILOT01","USUBJID":"01-701-1234","MHSEQ":2,"MHTERM":"VERBATIM_1716","MHDECOD":"VERBATIM_1716","MHBODSYS":"(uncoded - no MedDRA SOC in source)","ASTDT":null,"ASTDY":null,"TRTP":"Placebo","TRT01P":"Placebo","TRT01PN":null,"TRT01A":"Placebo","SITEGR1":900,"SITEID":701,"TRTSDT":"2013-03-30","TRTEDT":"2013-09-22","ITTFL":"Y","SAFFL":"Y","EFFFL":"N","COMPLFL":"Y"},{"STUDYID":"CDISCPILOT01","USUBJID":"01-701-1234","MHSEQ":3,"MHTERM":"VERBATIM_1775","MHDECOD":"VERBATIM_1775","MHBODSYS":"(uncoded - no MedDRA SOC in source)","ASTDT":null,"ASTDY":null,"TRTP":"Placebo","TRT01P":"Placebo","TRT01PN":null,"TRT01A":"Placebo","SITEGR1":900,"SITEID":701,"TRTSDT":"2013-03-30","TRTEDT":"2013-09-22","ITTFL":"Y","SAFFL":"Y","EFFFL":"N","COMPLFL":"Y"},{"STUDYID":"CDISCPILOT01","USUBJID":"01-701-1239","MHSEQ":12,"MHTERM":"ALZHEIMER'S DISEASE","MHDECOD":"ALZHEIMER'S DISEASE","MHBODSYS":"(uncoded - no MedDRA SOC in source)","ASTDT":"2003-09-23","ASTDY":null,"TRTP":"Xanomeline High Dose","TRT01P":"Xanomeline High Dose","TRT01PN":null,"TRT01A":"Xanomeline High Dose","SITEGR1":900,"SITEID":701,"TRTSDT":"2014-01-11","TRTEDT":"2014-07-10","ITTFL":"Y","SAFFL":"Y","EFFFL":"N","COMPLFL":"Y"},{"STUDYID":"CDISCPILOT01","USUBJID":"01-701-1239","MHSEQ":13,"MHTERM":"VERBATIM_0189","MHDECOD":"VERBATIM_0189","MHBODSYS":"(uncoded - no MedDRA SOC in source)","ASTDT":null,"ASTDY":null,"TRTP":"Xanomeline High Dose","TRT01P":"Xanomeline High Dose","TRT01PN":null,"TRT01A":"Xanomeline High Dose","SITEGR1":900,"SITEID":701,"TRTSDT":"2014-01-11","TRTEDT":"2014-07-10","ITTFL":"Y","SAFFL":"Y","EFFFL":"N","COMPLFL":"Y"},{"STUDYID":"CDISCPILOT01","USUBJID":"01-701-1239","MHSEQ":10,"MHTERM":"VERBATIM_0236","MHDECOD":"VERBATIM_0236","MHBODSYS":"(uncoded - no MedDRA SOC in source)","ASTDT":null,"ASTDY":null,"TRTP":"Xanomeline High Dose","TRT01P":"Xanomeline High Dose","TRT01PN":null,"TRT01A":"Xanomeline High Dose","SITEGR1":900,"SITEID":701,"TRTSDT":"2014-01-11","TRTEDT":"2014-07-10","ITTFL":"Y","SAFFL":"Y","EFFFL":"N","COMPLFL":"Y"},{"STUDYID":"CDISCPILOT01","USUBJID":"01-701-1239","MHSEQ":14,"MHTERM":"VERBATIM_0342","MHDECOD":"VERBATIM_0342","MHBODSYS":"(uncoded - no MedDRA SOC in source)","ASTDT":null,"ASTDY":null,"TRTP":"Xanomeline High Dose","TRT01P":"Xanomeline High Dose","TRT01PN":null,"TRT01A":"Xanomeline High Dose","SITEGR1":900,"SITEID":701,"TRTSDT":"2014-01-11","TRTEDT":"2014-07-10","ITTFL":"Y","SAFFL":"Y","EFFFL":"N","COMPLFL":"Y"},{"STUDYID":"CDISCPILOT01","USUBJID":"01-701-1239","MHSEQ":1,"MHTERM":"VERBATIM_0391","MHDECOD":"VERBATIM_0391","MHBODSYS":"(uncoded - no MedDRA SOC in source)","ASTDT":null,"ASTDY":null,"TRTP":"Xanomeline High Dose","TRT01P":"Xanomeline High Dose","TRT01PN":null,"TRT01A":"Xanomeline High Dose","SITEGR1":900,"SITEID":701,"TRTSDT":"2014-01-11","TRTEDT":"2014-07-10","ITTFL":"Y","SAFFL":"Y","EFFFL":"N","COMPLFL":"Y"},{"STUDYID":"CDISCPILOT01","USUBJID":"01-701-1239","MHSEQ":2,"MHTERM":"VERBATIM_0567","MHDECOD":"VERBATIM_0567","MHBODSYS":"(uncoded - no MedDRA SOC in source)","ASTDT":null,"ASTDY":null,"TRTP":"Xanomeline High Dose","TRT01P":"Xanomeline High Dose","TRT01PN":null,"TRT01A":"Xanomeline High Dose","SITEGR1":900,"SITEID":701,"TRTSDT":"2014-01-11","TRTEDT":"2014-07-10","ITTFL":"Y","SAFFL":"Y","EFFFL":"N","COMPLFL":"Y"},{"STUDYID":"CDISCPILOT01","USUBJID":"01-701-1239","MHSEQ":3,"MHTERM":"VERBATIM_0574","MHDECOD":"VERBATIM_0574","MHBODSYS":"(uncoded - no MedDRA SOC in source)","ASTDT":null,"ASTDY":null,"TRTP":"Xanomeline High Dose","TRT01P":"Xanomeline High Dose","TRT01PN":null,"TRT01A":"Xanomeline High Dose","SITEGR1":900,"SITEID":701,"TRTSDT":"2014-01-11","TRTEDT":"2014-07-10","ITTFL":"Y","SAFFL":"Y","EFFFL":"N","COMPLFL":"Y"},{"STUDYID":"CDISCPILOT01","USUBJID":"01-701-1239","MHSEQ":4,"MHTERM":"VERBATIM_0876","MHDECOD":"VERBATIM_0876","MHBODSYS":"(uncoded - no MedDRA SOC in source)","ASTDT":null,"ASTDY":null,"TRTP":"Xanomeline High Dose","TRT01P":"Xanomeline High Dose","TRT01PN":null,"TRT01A":"Xanomeline High Dose","SITEGR1":900,"SITEID":701,"TRTSDT":"2014-01-11","TRTEDT":"2014-07-10","ITTFL":"Y","SAFFL":"Y","EFFFL":"N","COMPLFL":"Y"},{"STUDYID":"CDISCPILOT01","USUBJID":"01-701-1239","MHSEQ":15,"MHTERM":"VERBATIM_1188","MHDECOD":"VERBATIM_1188","MHBODSYS":"(uncoded - no MedDRA SOC in source)","ASTDT":null,"ASTDY":null,"TRTP":"Xanomeline High Dose","TRT01P":"Xanomeline High Dose","TRT01PN":null,"TRT01A":"Xanomeline High Dose","SITEGR1":900,"SITEID":701,"TRTSDT":"2014-01-11","TRTEDT":"2014-07-10","ITTFL":"Y","SAFFL":"Y","EFFFL":"N","COMPLFL":"Y"},{"STUDYID":"CDISCPILOT01","USUBJID":"01-701-1239","MHSEQ":5,"MHTERM":"VERBATIM_1197","MHDECOD":"VERBATIM_1197","MHBODSYS":"(uncoded - no MedDRA SOC in source)","ASTDT":null,"ASTDY":null,"TRTP":"Xanomeline High Dose","TRT01P":"Xanomeline High Dose","TRT01PN":null,"TRT01A":"Xanomeline High Dose","SITEGR1":900,"SITEID":701,"TRTSDT":"2014-01-11","TRTEDT":"2014-07-10","ITTFL":"Y","SAFFL":"Y","EFFFL":"N","COMPLFL":"Y"},{"STUDYID":"CDISCPILOT01","USUBJID":"01-701-1239","MHSEQ":6,"MHTERM":"VERBATIM_1316","MHDECOD":"VERBATIM_1316","MHBODSYS":"(uncoded - no MedDRA SOC in source)","ASTDT":null,"ASTDY":null,"TRTP":"Xanomeline High Dose","TRT01P":"Xanomeline High Dose","TRT01PN":null,"TRT01A":"Xanomeline High Dose","SITEGR1":900,"SITEID":701,"TRTSDT":"2014-01-11","TRTEDT":"2014-07-10","ITTFL":"Y","SAFFL":"Y","EFFFL":"N","COMPLFL":"Y"},{"STUDYID":"CDISCPILOT01","USUBJID":"01-701-1239","MHSEQ":7,"MHTERM":"VERBATIM_1411","MHDECOD":"VERBATIM_1411","MHBODSYS":"(uncoded - no MedDRA SOC in source)","ASTDT":null,"ASTDY":null,"TRTP":"Xanomeline High Dose","TRT01P":"Xanomeline High Dose","TRT01PN":null,"TRT01A":"Xanomeline High Dose","SITEGR1":900,"SITEID":701,"TRTSDT":"2014-01-11","TRTEDT":"2014-07-10","ITTFL":"Y","SAFFL":"Y","EFFFL":"N","COMPLFL":"Y"},{"STUDYID":"CDISCPILOT01","USUBJID":"01-701-1239","MHSEQ":8,"MHTERM":"VERBATIM_1669","MHDECOD":"VERBATIM_1669","MHBODSYS":"(uncoded - no MedDRA SOC in source)","ASTDT":null,"ASTDY":null,"TRTP":"Xanomeline High Dose","TRT01P":"Xanomeline High Dose","TRT01PN":null,"TRT01A":"Xanomeline High Dose","SITEGR1":900,"SITEID":701,"TRTSDT":"2014-01-11","TRTEDT":"2014-07-10","ITTFL":"Y","SAFFL":"Y","EFFFL":"N","COMPLFL":"Y"},{"STUDYID":"CDISCPILOT01","USUBJID":"01-701-1239","MHSEQ":9,"MHTERM":"VERBATIM_1760","MHDECOD":"VERBATIM_1760","MHBODSYS":"(uncoded - no MedDRA SOC in source)","ASTDT":null,"ASTDY":null,"TRTP":"Xanomeline High Dose","TRT01P":"Xanomeline High Dose","TRT01PN":null,"TRT01A":"Xanomeline High Dose","SITEGR1":900,"SITEID":701,"TRTSDT":"2014-01-11","TRTEDT":"2014-07-10","ITTFL":"Y","SAFFL":"Y","EFFFL":"N","COMPLFL":"Y"},{"STUDYID":"CDISCPILOT01","USUBJID":"01-701-1239","MHSEQ":11,"MHTERM":"VERBATIM_1775","MHDECOD":"VERBATIM_1775","MHBODSYS":"(uncoded - no MedDRA SOC in source)","ASTDT":null,"ASTDY":null,"TRTP":"Xanomeline High Dose","TRT01P":"Xanomeline High Dose","TRT01PN":null,"TRT01A":"Xanomeline High Dose","SITEGR1":900,"SITEID":701,"TRTSDT":"2014-01-11","TRTEDT":"2014-07-10","ITTFL":"Y","SAFFL":"Y","EFFFL":"N","COMPLFL":"Y"},{"STUDYID":"CDISCPILOT01","USUBJID":"01-701-1275","MHSEQ":4,"MHTERM":"ALZHEIMER'S DISEASE","MHDECOD":"ALZHEIMER'S DISEASE","MHBODSYS":"(uncoded - no MedDRA SOC in source)","ASTDT":"2011-09-17","ASTDY":null,"TRTP":"Xanomeline High Dose","TRT01P":"Xanomeline High Dose","TRT01PN":null,"TRT01A":"Xanomeline High Dose","SITEGR1":900,"SITEID":701,"TRTSDT":"2014-02-07","TRTEDT":"2014-05-31","ITTFL":"Y","SAFFL":"Y","EFFFL":"N","COMPLFL":"N"},{"STUDYID":"CDISCPILOT01","USUBJID":"01-701-1275","MHSEQ":1,"MHTERM":"VERBATIM_0021","MHDECOD":"VERBATIM_0021","MHBODSYS":"(uncoded - no MedDRA SOC in source)","ASTDT":null,"ASTDY":null,"TRTP":"Xanomeline High Dose","TRT01P":"Xanomeline High Dose","TRT01PN":null,"TRT01A":"Xanomeline High Dose","SITEGR1":900,"SITEID":701,"TRTSDT":"2014-02-07","TRTEDT":"2014-05-31","ITTFL":"Y","SAFFL":"Y","EFFFL":"N","COMPLFL":"N"},{"STUDYID":"CDISCPILOT01","USUBJID":"01-701-1275","MHSEQ":2,"MHTERM":"VERBATIM_0301","MHDECOD":"VERBATIM_0301","MHBODSYS":"(uncoded - no MedDRA SOC in source)","ASTDT":null,"ASTDY":null,"TRTP":"Xanomeline High Dose","TRT01P":"Xanomeline High Dose","TRT01PN":null,"TRT01A":"Xanomeline High Dose","SITEGR1":900,"SITEID":701,"TRTSDT":"2014-02-07","TRTEDT":"2014-05-31","ITTFL":"Y","SAFFL":"Y","EFFFL":"N","COMPLFL":"N"},{"STUDYID":"CDISCPILOT01","USUBJID":"01-701-1275","MHSEQ":3,"MHTERM":"VERBATIM_1683","MHDECOD":"VERBATIM_1683","MHBODSYS":"(uncoded - no MedDRA SOC in source)","ASTDT":null,"ASTDY":null,"TRTP":"Xanomeline High Dose","TRT01P":"Xanomeline High Dose","TRT01PN":null,"TRT01A":"Xanomeline High Dose","SITEGR1":900,"SITEID":701,"TRTSDT":"2014-02-07","TRTEDT":"2014-05-31","ITTFL":"Y","SAFFL":"Y","EFFFL":"N","COMPLFL":"N"},{"STUDYID":"CDISCPILOT01","USUBJID":"01-701-1287","MHSEQ":4,"MHTERM":"ALZHEIMER'S DISEASE","MHDECOD":"ALZHEIMER'S DISEASE","MHBODSYS":"(uncoded - no MedDRA SOC in source)","ASTDT":"2009-10-30","ASTDY":null,"TRTP":"Xanomeline High Dose","TRT01P":"Xanomeline High Dose","TRT01PN":null,"TRT01A":"Xanomeline High Dose","SITEGR1":900,"SITEID":701,"TRTSDT":"2014-01-25","TRTEDT":"2014-07-26","ITTFL":"Y","SAFFL":"Y","EFFFL":"N","COMPLFL":"Y"},{"STUDYID":"CDISCPILOT01","USUBJID":"01-701-1287","MHSEQ":2,"MHTERM":"VERBATIM_0526","MHDECOD":"VERBATIM_0526","MHBODSYS":"(uncoded - no MedDRA SOC in source)","ASTDT":null,"ASTDY":null,"TRTP":"Xanomeline High Dose","TRT01P":"Xanomeline High Dose","TRT01PN":null,"TRT01A":"Xanomeline High Dose","SITEGR1":900,"SITEID":701,"TRTSDT":"2014-01-25","TRTEDT":"2014-07-26","ITTFL":"Y","SAFFL":"Y","EFFFL":"N","COMPLFL":"Y"},{"STUDYID":"CDISCPILOT01","USUBJID":"01-701-1287","MHSEQ":5,"MHTERM":"VERBATIM_1280","MHDECOD":"VERBATIM_1280","MHBODSYS":"(uncoded - no MedDRA SOC in source)","ASTDT":null,"ASTDY":null,"TRTP":"Xanomeline High Dose","TRT01P":"Xanomeline High Dose","TRT01PN":null,"TRT01A":"Xanomeline High Dose","SITEGR1":900,"SITEID":701,"TRTSDT":"2014-01-25","TRTEDT":"2014-07-26","ITTFL":"Y","SAFFL":"Y","EFFFL":"N","COMPLFL":"Y"},{"STUDYID":"CDISCPILOT01","USUBJID":"01-701-1287","MHSEQ":1,"MHTERM":"VERBATIM_1532","MHDECOD":"VERBATIM_1532","MHBODSYS":"(uncoded - no MedDRA SOC in source)","ASTDT":null,"ASTDY":null,"TRTP":"Xanomeline High Dose","TRT01P":"Xanomeline High Dose","TRT01PN":null,"TRT01A":"Xanomeline High Dose","SITEGR1":900,"SITEID":701,"TRTSDT":"2014-01-25","TRTEDT":"2014-07-26","ITTFL":"Y","SAFFL":"Y","EFFFL":"N","COMPLFL":"Y"},{"STUDYID":"CDISCPILOT01","USUBJID":"01-701-1287","MHSEQ":3,"MHTERM":"VERBATIM_1763","MHDECOD":"VERBATIM_1763","MHBODSYS":"(uncoded - no MedDRA SOC in source)","ASTDT":null,"ASTDY":null,"TRTP":"Xanomeline High Dose","TRT01P":"Xanomeline High Dose","TRT01PN":null,"TRT01A":"Xanomeline High Dose","SITEGR1":900,"SITEID":701,"TRTSDT":"2014-01-25","TRTEDT":"2014-07-26","ITTFL":"Y","SAFFL":"Y","EFFFL":"N","COMPLFL":"Y"},{"STUDYID":"CDISCPILOT01","USUBJID":"01-701-1294","MHSEQ":10,"MHTERM":"ALZHEIMER'S DISEASE","MHDECOD":"ALZHEIMER'S DISEASE","MHBODSYS":"(uncoded - no MedDRA SOC in source)","ASTDT":"2011-09-09","ASTDY":null,"TRTP":"Xanomeline Low Dose","TRT01P":"Xanomeline Low Dose","TRT01PN":null,"TRT01A":"Xanomeline Low Dose","SITEGR1":900,"SITEID":701,"TRTSDT":"2013-03-24","TRTEDT":"2013-06-14","ITTFL":"Y","SAFFL":"Y","EFFFL":"N","COMPLFL":"N"},{"STUDYID":"CDISCPILOT01","USUBJID":"01-701-1294","MHSEQ":1,"MHTERM":"VERBATIM_0162","MHDECOD":"VERBATIM_0162","MHBODSYS":"(uncoded - no MedDRA SOC in source)","ASTDT":null,"ASTDY":null,"TRTP":"Xanomeline Low Dose","TRT01P":"Xanomeline Low Dose","TRT01PN":null,"TRT01A":"Xanomeline Low Dose","SITEGR1":900,"SITEID":701,"TRTSDT":"2013-03-24","TRTEDT":"2013-06-14","ITTFL":"Y","SAFFL":"Y","EFFFL":"N","COMPLFL":"N"},{"STUDYID":"CDISCPILOT01","USUBJID":"01-701-1294","MHSEQ":2,"MHTERM":"VERBATIM_0464","MHDECOD":"VERBATIM_0464","MHBODSYS":"(uncoded - no MedDRA SOC in source)","ASTDT":null,"ASTDY":null,"TRTP":"Xanomeline Low Dose","TRT01P":"Xanomeline Low Dose","TRT01PN":null,"TRT01A":"Xanomeline Low Dose","SITEGR1":900,"SITEID":701,"TRTSDT":"2013-03-24","TRTEDT":"2013-06-14","ITTFL":"Y","SAFFL":"Y","EFFFL":"N","COMPLFL":"N"},{"STUDYID":"CDISCPILOT01","USUBJID":"01-701-1294","MHSEQ":8,"MHTERM":"VERBATIM_0721","MHDECOD":"VERBATIM_0721","MHBODSYS":"(uncoded - no MedDRA SOC in source)","ASTDT":null,"ASTDY":null,"TRTP":"Xanomeline Low Dose","TRT01P":"Xanomeline Low Dose","TRT01PN":null,"TRT01A":"Xanomeline Low Dose","SITEGR1":900,"SITEID":701,"TRTSDT":"2013-03-24","TRTEDT":"2013-06-14","ITTFL":"Y","SAFFL":"Y","EFFFL":"N","COMPLFL":"N"},{"STUDYID":"CDISCPILOT01","USUBJID":"01-701-1294","MHSEQ":9,"MHTERM":"VERBATIM_0739","MHDECOD":"VERBATIM_0739","MHBODSYS":"(uncoded - no MedDRA SOC in source)","ASTDT":null,"ASTDY":null,"TRTP":"Xanomeline Low Dose","TRT01P":"Xanomeline Low Dose","TRT01PN":null,"TRT01A":"Xanomeline Low Dose","SITEGR1":900,"SITEID":701,"TRTSDT":"2013-03-24","TRTEDT":"2013-06-14","ITTFL":"Y","SAFFL":"Y","EFFFL":"N","COMPLFL":"N"},{"STUDYID":"CDISCPILOT01","USUBJID":"01-701-1294","MHSEQ":3,"MHTERM":"VERBATIM_1063","MHDECOD":"VERBATIM_1063","MHBODSYS":"(uncoded - no MedDRA SOC in source)","ASTDT":null,"ASTDY":null,"TRTP":"Xanomeline Low Dose","TRT01P":"Xanomeline Low Dose","TRT01PN":null,"TRT01A":"Xanomeline Low Dose","SITEGR1":900,"SITEID":701,"TRTSDT":"2013-03-24","TRTEDT":"2013-06-14","ITTFL":"Y","SAFFL":"Y","EFFFL":"N","COMPLFL":"N"},{"STUDYID":"CDISCPILOT01","USUBJID":"01-701-1294","MHSEQ":7,"MHTERM":"VERBATIM_1187","MHDECOD":"VERBATIM_1187","MHBODSYS":"(uncoded - no MedDRA SOC in source)","ASTDT":null,"ASTDY":null,"TRTP":"Xanomeline Low Dose","TRT01P":"Xanomeline Low Dose","TRT01PN":null,"TRT01A":"Xanomeline Low Dose","SITEGR1":900,"SITEID":701,"TRTSDT":"2013-03-24","TRTEDT":"2013-06-14","ITTFL":"Y","SAFFL":"Y","EFFFL":"N","COMPLFL":"N"},{"STUDYID":"CDISCPILOT01","USUBJID":"01-701-1294","MHSEQ":11,"MHTERM":"VERBATIM_1380","MHDECOD":"VERBATIM_1380","MHBODSYS":"(uncoded - no MedDRA SOC in source)","ASTDT":null,"ASTDY":null,"TRTP":"Xanomeline Low Dose","TRT01P":"Xanomeline Low Dose","TRT01PN":null,"TRT01A":"Xanomeline Low Dose","SITEGR1":900,"SITEID":701,"TRTSDT":"2013-03-24","TRTEDT":"2013-06-14","ITTFL":"Y","SAFFL":"Y","EFFFL":"N","COMPLFL":"N"},{"STUDYID":"CDISCPILOT01","USUBJID":"01-701-1294","MHSEQ":4,"MHTERM":"VERBATIM_1491","MHDECOD":"VERBATIM_1491","MHBODSYS":"(uncoded - no MedDRA SOC in source)","ASTDT":null,"ASTDY":null,"TRTP":"Xanomeline Low Dose","TRT01P":"Xanomeline Low Dose","TRT01PN":null,"TRT01A":"Xanomeline Low Dose","SITEGR1":900,"SITEID":701,"TRTSDT":"2013-03-24","TRTEDT":"2013-06-14","ITTFL":"Y","SAFFL":"Y","EFFFL":"N","COMPLFL":"N"},{"STUDYID":"CDISCPILOT01","USUBJID":"01-701-1294","MHSEQ":6,"MHTERM":"VERBATIM_1716","MHDECOD":"VERBATIM_1716","MHBODSYS":"(uncoded - no MedDRA SOC in source)","ASTDT":null,"ASTDY":null,"TRTP":"Xanomeline Low Dose","TRT01P":"Xanomeline Low Dose","TRT01PN":null,"TRT01A":"Xanomeline Low Dose","SITEGR1":900,"SITEID":701,"TRTSDT":"2013-03-24","TRTEDT":"2013-06-14","ITTFL":"Y","SAFFL":"Y","EFFFL":"N","COMPLFL":"N"},{"STUDYID":"CDISCPILOT01","USUBJID":"01-701-1294","MHSEQ":5,"MHTERM":"VERBATIM_1769","MHDECOD":"VERBATIM_1769","MHBODSYS":"(uncoded - no MedDRA SOC in source)","ASTDT":null,"ASTDY":null,"TRTP":"Xanomeline Low Dose","TRT01P":"Xanomeline Low Dose","TRT01PN":null,"TRT01A":"Xanomeline Low Dose","SITEGR1":900,"SITEID":701,"TRTSDT":"2013-03-24","TRTEDT":"2013-06-14","ITTFL":"Y","SAFFL":"Y","EFFFL":"N","COMPLFL":"N"},{"STUDYID":"CDISCPILOT01","USUBJID":"01-701-1302","MHSEQ":20,"MHTERM":"ALZHEIMER'S DISEASE","MHDECOD":"ALZHEIMER'S DISEASE","MHBODSYS":"(uncoded - no MedDRA SOC in source)","ASTDT":"2007-02-09","ASTDY":null,"TRTP":"Xanomeline High Dose","TRT01P":"Xanomeline High Dose","TRT01PN":null,"TRT01A":"Xanomeline High Dose","SITEGR1":900,"SITEID":701,"TRTSDT":"2013-08-29","TRTEDT":"2013-11-05","ITTFL":"Y","SAFFL":"Y","EFFFL":"N","COMPLFL":"N"},{"STUDYID":"CDISCPILOT01","USUBJID":"01-701-1302","MHSEQ":1,"MHTERM":"VERBATIM_0045","MHDECOD":"VERBATIM_0045","MHBODSYS":"(uncoded - no MedDRA SOC in source)","ASTDT":null,"ASTDY":null,"TRTP":"Xanomeline High Dose","TRT01P":"Xanomeline High Dose","TRT01PN":null,"TRT01A":"Xanomeline High Dose","SITEGR1":900,"SITEID":701,"TRTSDT":"2013-08-29","TRTEDT":"2013-11-05","ITTFL":"Y","SAFFL":"Y","EFFFL":"N","COMPLFL":"N"},{"STUDYID":"CDISCPILOT01","USUBJID":"01-701-1302","MHSEQ":21,"MHTERM":"VERBATIM_0123","MHDECOD":"VERBATIM_0123","MHBODSYS":"(uncoded - no MedDRA SOC in source)","ASTDT":"2012-03-15","ASTDY":null,"TRTP":"Xanomeline High Dose","TRT01P":"Xanomeline High Dose","TRT01PN":null,"TRT01A":"Xanomeline High Dose","SITEGR1":900,"SITEID":701,"TRTSDT":"2013-08-29","TRTEDT":"2013-11-05","ITTFL":"Y","SAFFL":"Y","EFFFL":"N","COMPLFL":"N"},{"STUDYID":"CDISCPILOT01","USUBJID":"01-701-1302","MHSEQ":2,"MHTERM":"VERBATIM_0148","MHDECOD":"VERBATIM_0148","MHBODSYS":"(uncoded - no MedDRA SOC in source)","ASTDT":null,"ASTDY":null,"TRTP":"Xanomeline High Dose","TRT01P":"Xanomeline High Dose","TRT01PN":null,"TRT01A":"Xanomeline High Dose","SITEGR1":900,"SITEID":701,"TRTSDT":"2013-08-29","TRTEDT":"2013-11-05","ITTFL":"Y","SAFFL":"Y","EFFFL":"N","COMPLFL":"N"},{"STUDYID":"CDISCPILOT01","USUBJID":"01-701-1302","MHSEQ":3,"MHTERM":"VERBATIM_0391","MHDECOD":"VERBATIM_0391","MHBODSYS":"(uncoded - no MedDRA SOC in source)","ASTDT":null,"ASTDY":null,"TRTP":"Xanomeline High Dose","TRT01P":"Xanomeline High Dose","TRT01PN":null,"TRT01A":"Xanomeline High Dose","SITEGR1":900,"SITEID":701,"TRTSDT":"2013-08-29","TRTEDT":"2013-11-05","ITTFL":"Y","SAFFL":"Y","EFFFL":"N","COMPLFL":"N"},{"STUDYID":"CDISCPILOT01","USUBJID":"01-701-1302","MHSEQ":4,"MHTERM":"VERBATIM_0443","MHDECOD":"VERBATIM_0443","MHBODSYS":"(uncoded - no MedDRA SOC in source)","ASTDT":null,"ASTDY":null,"TRTP":"Xanomeline High Dose","TRT01P":"Xanomeline High Dose","TRT01PN":null,"TRT01A":"Xanomeline High Dose","SITEGR1":900,"SITEID":701,"TRTSDT":"2013-08-29","TRTEDT":"2013-11-05","ITTFL":"Y","SAFFL":"Y","EFFFL":"N","COMPLFL":"N"},{"STUDYID":"CDISCPILOT01","USUBJID":"01-701-1302","MHSEQ":23,"MHTERM":"VERBATIM_0558","MHDECOD":"VERBATIM_0558","MHBODSYS":"(uncoded - no MedDRA SOC in source)","ASTDT":"2012-04-04","ASTDY":null,"TRTP":"Xanomeline High Dose","TRT01P":"Xanomeline High Dose","TRT01PN":null,"TRT01A":"Xanomeline High Dose","SITEGR1":900,"SITEID":701,"TRTSDT":"2013-08-29","TRTEDT":"2013-11-05","ITTFL":"Y","SAFFL":"Y","EFFFL":"N","COMPLFL":"N"},{"STUDYID":"CDISCPILOT01","USUBJID":"01-701-1302","MHSEQ":24,"MHTERM":"VERBATIM_0579","MHDECOD":"VERBATIM_0579","MHBODSYS":"(uncoded - no MedDRA SOC in source)","ASTDT":"2012-04-04","ASTDY":null,"TRTP":"Xanomeline High Dose","TRT01P":"Xanomeline High Dose","TRT01PN":null,"TRT01A":"Xanomeline High Dose","SITEGR1":900,"SITEID":701,"TRTSDT":"2013-08-29","TRTEDT":"2013-11-05","ITTFL":"Y","SAFFL":"Y","EFFFL":"N","COMPLFL":"N"},{"STUDYID":"CDISCPILOT01","USUBJID":"01-701-1302","MHSEQ":5,"MHTERM":"VERBATIM_0894","MHDECOD":"VERBATIM_0894","MHBODSYS":"(uncoded - no MedDRA SOC in source)","ASTDT":null,"ASTDY":null,"TRTP":"Xanomeline High Dose","TRT01P":"Xanomeline High Dose","TRT01PN":null,"TRT01A":"Xanomeline High Dose","SITEGR1":900,"SITEID":701,"TRTSDT":"2013-08-29","TRTEDT":"2013-11-05","ITTFL":"Y","SAFFL":"Y","EFFFL":"N","COMPLFL":"N"},{"STUDYID":"CDISCPILOT01","USUBJID":"01-701-1302","MHSEQ":14,"MHTERM":"VERBATIM_0919","MHDECOD":"VERBATIM_0919","MHBODSYS":"(uncoded - no MedDRA SOC in source)","ASTDT":null,"ASTDY":null,"TRTP":"Xanomeline High Dose","TRT01P":"Xanomeline High Dose","TRT01PN":null,"TRT01A":"Xanomeline High Dose","SITEGR1":900,"SITEID":701,"TRTSDT":"2013-08-29","TRTEDT":"2013-11-05","ITTFL":"Y","SAFFL":"Y","EFFFL":"N","COMPLFL":"N"},{"STUDYID":"CDISCPILOT01","USUBJID":"01-701-1302","MHSEQ":6,"MHTERM":"VERBATIM_0929","MHDECOD":"VERBATIM_0929","MHBODSYS":"(uncoded - no MedDRA SOC in source)","ASTDT":null,"ASTDY":null,"TRTP":"Xanomeline High Dose","TRT01P":"Xanomeline High Dose","TRT01PN":null,"TRT01A":"Xanomeline High Dose","SITEGR1":900,"SITEID":701,"TRTSDT":"2013-08-29","TRTEDT":"2013-11-05","ITTFL":"Y","SAFFL":"Y","EFFFL":"N","COMPLFL":"N"},{"STUDYID":"CDISCPILOT01","USUBJID":"01-701-1302","MHSEQ":7,"MHTERM":"VERBATIM_1022","MHDECOD":"VERBATIM_1022","MHBODSYS":"(uncoded - no MedDRA SOC in source)","ASTDT":null,"ASTDY":null,"TRTP":"Xanomeline High Dose","TRT01P":"Xanomeline High Dose","TRT01PN":null,"TRT01A":"Xanomeline High Dose","SITEGR1":900,"SITEID":701,"TRTSDT":"2013-08-29","TRTEDT":"2013-11-05","ITTFL":"Y","SAFFL":"Y","EFFFL":"N","COMPLFL":"N"},{"STUDYID":"CDISCPILOT01","USUBJID":"01-701-1302","MHSEQ":8,"MHTERM":"VERBATIM_1094","MHDECOD":"VERBATIM_1094","MHBODSYS":"(uncoded - no MedDRA SOC in source)","ASTDT":null,"ASTDY":null,"TRTP":"Xanomeline High Dose","TRT01P":"Xanomeline High Dose","TRT01PN":null,"TRT01A":"Xanomeline High Dose","SITEGR1":900,"SITEID":701,"TRTSDT":"2013-08-29","TRTEDT":"2013-11-05","ITTFL":"Y","SAFFL":"Y","EFFFL":"N","COMPLFL":"N"},{"STUDYID":"CDISCPILOT01","USUBJID":"01-701-1302","MHSEQ":18,"MHTERM":"VERBATIM_1233","MHDECOD":"VERBATIM_1233","MHBODSYS":"(uncoded - no MedDRA SOC in source)","ASTDT":null,"ASTDY":null,"TRTP":"Xanomeline High Dose","TRT01P":"Xanomeline High Dose","TRT01PN":null,"TRT01A":"Xanomeline High Dose","SITEGR1":900,"SITEID":701,"TRTSDT":"2013-08-29","TRTEDT":"2013-11-05","ITTFL":"Y","SAFFL":"Y","EFFFL":"N","COMPLFL":"N"},{"STUDYID":"CDISCPILOT01","USUBJID":"01-701-1302","MHSEQ":9,"MHTERM":"VERBATIM_1348","MHDECOD":"VERBATIM_1348","MHBODSYS":"(uncoded - no MedDRA SOC in source)","ASTDT":null,"ASTDY":null,"TRTP":"Xanomeline High Dose","TRT01P":"Xanomeline High Dose","TRT01PN":null,"TRT01A":"Xanomeline High Dose","SITEGR1":900,"SITEID":701,"TRTSDT":"2013-08-29","TRTEDT":"2013-11-05","ITTFL":"Y","SAFFL":"Y","EFFFL":"N","COMPLFL":"N"},{"STUDYID":"CDISCPILOT01","USUBJID":"01-701-1302","MHSEQ":25,"MHTERM":"VERBATIM_1438","MHDECOD":"VERBATIM_1438","MHBODSYS":"(uncoded - no MedDRA SOC in source)","ASTDT":null,"ASTDY":null,"TRTP":"Xanomeline High Dose","TRT01P":"Xanomeline High Dose","TRT01PN":null,"TRT01A":"Xanomeline High Dose","SITEGR1":900,"SITEID":701,"TRTSDT":"2013-08-29","TRTEDT":"2013-11-05","ITTFL":"Y","SAFFL":"Y","EFFFL":"N","COMPLFL":"N"},{"STUDYID":"CDISCPILOT01","USUBJID":"01-701-1302","MHSEQ":15,"MHTERM":"VERBATIM_1463","MHDECOD":"VERBATIM_1463","MHBODSYS":"(uncoded - no MedDRA SOC in source)","ASTDT":null,"ASTDY":null,"TRTP":"Xanomeline High Dose","TRT01P":"Xanomeline High Dose","TRT01PN":null,"TRT01A":"Xanomeline High Dose","SITEGR1":900,"SITEID":701,"TRTSDT":"2013-08-29","TRTEDT":"2013-11-05","ITTFL":"Y","SAFFL":"Y","EFFFL":"N","COMPLFL":"N"},{"STUDYID":"CDISCPILOT01","USUBJID":"01-701-1302","MHSEQ":16,"MHTERM":"VERBATIM_1475","MHDECOD":"VERBATIM_1475","MHBODSYS":"(uncoded - no MedDRA SOC in source)","ASTDT":null,"ASTDY":null,"TRTP":"Xanomeline High Dose","TRT01P":"Xanomeline High Dose","TRT01PN":null,"TRT01A":"Xanomeline High Dose","SITEGR1":900,"SITEID":701,"TRTSDT":"2013-08-29","TRTEDT":"2013-11-05","ITTFL":"Y","SAFFL":"Y","EFFFL":"N","COMPLFL":"N"},{"STUDYID":"CDISCPILOT01","USUBJID":"01-701-1302","MHSEQ":10,"MHTERM":"VERBATIM_1532","MHDECOD":"VERBATIM_1532","MHBODSYS":"(uncoded - no MedDRA SOC in source)","ASTDT":null,"ASTDY":null,"TRTP":"Xanomeline High Dose","TRT01P":"Xanomeline High Dose","TRT01PN":null,"TRT01A":"Xanomeline High Dose","SITEGR1":900,"SITEID":701,"TRTSDT":"2013-08-29","TRTEDT":"2013-11-05","ITTFL":"Y","SAFFL":"Y","EFFFL":"N","COMPLFL":"N"},{"STUDYID":"CDISCPILOT01","USUBJID":"01-701-1302","MHSEQ":11,"MHTERM":"VERBATIM_1631","MHDECOD":"VERBATIM_1631","MHBODSYS":"(uncoded - no MedDRA SOC in source)","ASTDT":null,"ASTDY":null,"TRTP":"Xanomeline High Dose","TRT01P":"Xanomeline High Dose","TRT01PN":null,"TRT01A":"Xanomeline High Dose","SITEGR1":900,"SITEID":701,"TRTSDT":"2013-08-29","TRTEDT":"2013-11-05","ITTFL":"Y","SAFFL":"Y","EFFFL":"N","COMPLFL":"N"},{"STUDYID":"CDISCPILOT01","USUBJID":"01-701-1302","MHSEQ":13,"MHTERM":"VERBATIM_1716","MHDECOD":"VERBATIM_1716","MHBODSYS":"(uncoded - no MedDRA SOC in source)","ASTDT":null,"ASTDY":null,"TRTP":"Xanomeline High Dose","TRT01P":"Xanomeline High Dose","TRT01PN":null,"TRT01A":"Xanomeline High Dose","SITEGR1":900,"SITEID":701,"TRTSDT":"2013-08-29","TRTEDT":"2013-11-05","ITTFL":"Y","SAFFL":"Y","EFFFL":"N","COMPLFL":"N"},{"STUDYID":"CDISCPILOT01","USUBJID":"01-701-1302","MHSEQ":19,"MHTERM":"VERBATIM_1738","MHDECOD":"VERBATIM_1738","MHBODSYS":"(uncoded - no MedDRA SOC in source)","ASTDT":null,"ASTDY":null,"TRTP":"Xanomeline High Dose","TRT01P":"Xanomeline High Dose","TRT01PN":null,"TRT01A":"Xanomeline High Dose","SITEGR1":900,"SITEID":701,"TRTSDT":"2013-08-29","TRTEDT":"2013-11-05","ITTFL":"Y","SAFFL":"Y","EFFFL":"N","COMPLFL":"N"},{"STUDYID":"CDISCPILOT01","USUBJID":"01-701-1302","MHSEQ":22,"MHTERM":"VERBATIM_1747","MHDECOD":"VERBATIM_1747","MHBODSYS":"(uncoded - no MedDRA SOC in source)","ASTDT":"2012-03-15","ASTDY":null,"TRTP":"Xanomeline High Dose","TRT01P":"Xanomeline High Dose","TRT01PN":null,"TRT01A":"Xanomeline High Dose","SITEGR1":900,"SITEID":701,"TRTSDT":"2013-08-29","TRTEDT":"2013-11-05","ITTFL":"Y","SAFFL":"Y","EFFFL":"N","COMPLFL":"N"},{"STUDYID":"CDISCPILOT01","USUBJID":"01-701-1302","MHSEQ":17,"MHTERM":"VERBATIM_1768","MHDECOD":"VERBATIM_1768","MHBODSYS":"(uncoded - no MedDRA SOC in source)","ASTDT":null,"ASTDY":null,"TRTP":"Xanomeline High Dose","TRT01P":"Xanomeline High Dose","TRT01PN":null,"TRT01A":"Xanomeline High Dose","SITEGR1":900,"SITEID":701,"TRTSDT":"2013-08-29","TRTEDT":"2013-11-05","ITTFL":"Y","SAFFL":"Y","EFFFL":"N","COMPLFL":"N"},{"STUDYID":"CDISCPILOT01","USUBJID":"01-701-1302","MHSEQ":12,"MHTERM":"VERBATIM_1781","MHDECOD":"VERBATIM_1781","MHBODSYS":"(uncoded - no MedDRA SOC in source)","ASTDT":null,"ASTDY":null,"TRTP":"Xanomeline High Dose","TRT01P":"Xanomeline High Dose","TRT01PN":null,"TRT01A":"Xanomeline High Dose","SITEGR1":900,"SITEID":701,"TRTSDT":"2013-08-29","TRTEDT":"2013-11-05","ITTFL":"Y","SAFFL":"Y","EFFFL":"N","COMPLFL":"N"},{"STUDYID":"CDISCPILOT01","USUBJID":"01-701-1317","MHSEQ":12,"MHTERM":"ALZHEIMER'S DISEASE","MHDECOD":"ALZHEIMER'S DISEASE","MHBODSYS":"(uncoded - no MedDRA SOC in source)","ASTDT":"2013-09-16","ASTDY":null,"TRTP":"Xanomeline Low Dose","TRT01P":"Xanomeline Low Dose","TRT01PN":null,"TRT01A":"Xanomeline Low Dose","SITEGR1":900,"SITEID":701,"TRTSDT":"2014-05-22","TRTEDT":"2014-11-20","ITTFL":"Y","SAFFL":"Y","EFFFL":"N","COMPLFL":"Y"},{"STUDYID":"CDISCPILOT01","USUBJID":"01-701-1317","MHSEQ":1,"MHTERM":"VERBATIM_0014","MHDECOD":"VERBATIM_0014","MHBODSYS":"(uncoded - no MedDRA SOC in source)","ASTDT":null,"ASTDY":null,"TRTP":"Xanomeline Low Dose","TRT01P":"Xanomeline Low Dose","TRT01PN":null,"TRT01A":"Xanomeline Low Dose","SITEGR1":900,"SITEID":701,"TRTSDT":"2014-05-22","TRTEDT":"2014-11-20","ITTFL":"Y","SAFFL":"Y","EFFFL":"N","COMPLFL":"Y"},{"STUDYID":"CDISCPILOT01","USUBJID":"01-701-1317","MHSEQ":2,"MHTERM":"VERBATIM_0162","MHDECOD":"VERBATIM_0162","MHBODSYS":"(uncoded - no MedDRA SOC in source)","ASTDT":null,"ASTDY":null,"TRTP":"Xanomeline Low Dose","TRT01P":"Xanomeline Low Dose","TRT01PN":null,"TRT01A":"Xanomeline Low Dose","SITEGR1":900,"SITEID":701,"TRTSDT":"2014-05-22","TRTEDT":"2014-11-20","ITTFL":"Y","SAFFL":"Y","EFFFL":"N","COMPLFL":"Y"},{"STUDYID":"CDISCPILOT01","USUBJID":"01-701-1317","MHSEQ":3,"MHTERM":"VERBATIM_0267","MHDECOD":"VERBATIM_0267","MHBODSYS":"(uncoded - no MedDRA SOC in source)","ASTDT":null,"ASTDY":null,"TRTP":"Xanomeline Low Dose","TRT01P":"Xanomeline Low Dose","TRT01PN":null,"TRT01A":"Xanomeline Low Dose","SITEGR1":900,"SITEID":701,"TRTSDT":"2014-05-22","TRTEDT":"2014-11-20","ITTFL":"Y","SAFFL":"Y","EFFFL":"N","COMPLFL":"Y"},{"STUDYID":"CDISCPILOT01","USUBJID":"01-701-1317","MHSEQ":4,"MHTERM":"VERBATIM_0301","MHDECOD":"VERBATIM_0301","MHBODSYS":"(uncoded - no MedDRA SOC in source)","ASTDT":null,"ASTDY":null,"TRTP":"Xanomeline Low Dose","TRT01P":"Xanomeline Low Dose","TRT01PN":null,"TRT01A":"Xanomeline Low Dose","SITEGR1":900,"SITEID":701,"TRTSDT":"2014-05-22","TRTEDT":"2014-11-20","ITTFL":"Y","SAFFL":"Y","EFFFL":"N","COMPLFL":"Y"},{"STUDYID":"CDISCPILOT01","USUBJID":"01-701-1317","MHSEQ":5,"MHTERM":"VERBATIM_0391","MHDECOD":"VERBATIM_0391","MHBODSYS":"(uncoded - no MedDRA SOC in source)","ASTDT":null,"ASTDY":null,"TRTP":"Xanomeline Low Dose","TRT01P":"Xanomeline Low Dose","TRT01PN":null,"TRT01A":"Xanomeline Low Dose","SITEGR1":900,"SITEID":701,"TRTSDT":"2014-05-22","TRTEDT":"2014-11-20","ITTFL":"Y","SAFFL":"Y","EFFFL":"N","COMPLFL":"Y"},{"STUDYID":"CDISCPILOT01","USUBJID":"01-701-1317","MHSEQ":6,"MHTERM":"VERBATIM_0841","MHDECOD":"VERBATIM_0841","MHBODSYS":"(uncoded - no MedDRA SOC in source)","ASTDT":null,"ASTDY":null,"TRTP":"Xanomeline Low Dose","TRT01P":"Xanomeline Low Dose","TRT01PN":null,"TRT01A":"Xanomeline Low Dose","SITEGR1":900,"SITEID":701,"TRTSDT":"2014-05-22","TRTEDT":"2014-11-20","ITTFL":"Y","SAFFL":"Y","EFFFL":"N","COMPLFL":"Y"},{"STUDYID":"CDISCPILOT01","USUBJID":"01-701-1317","MHSEQ":7,"MHTERM":"VERBATIM_1190","MHDECOD":"VERBATIM_1190","MHBODSYS":"(uncoded - no MedDRA SOC in source)","ASTDT":null,"ASTDY":null,"TRTP":"Xanomeline Low Dose","TRT01P":"Xanomeline Low Dose","TRT01PN":null,"TRT01A":"Xanomeline Low Dose","SITEGR1":900,"SITEID":701,"TRTSDT":"2014-05-22","TRTEDT":"2014-11-20","ITTFL":"Y","SAFFL":"Y","EFFFL":"N","COMPLFL":"Y"},{"STUDYID":"CDISCPILOT01","USUBJID":"01-701-1317","MHSEQ":8,"MHTERM":"VERBATIM_1257","MHDECOD":"VERBATIM_1257","MHBODSYS":"(uncoded - no MedDRA SOC in source)","ASTDT":null,"ASTDY":null,"TRTP":"Xanomeline Low Dose","TRT01P":"Xanomeline Low Dose","TRT01PN":null,"TRT01A":"Xanomeline Low Dose","SITEGR1":900,"SITEID":701,"TRTSDT":"2014-05-22","TRTEDT":"2014-11-20","ITTFL":"Y","SAFFL":"Y","EFFFL":"N","COMPLFL":"Y"},{"STUDYID":"CDISCPILOT01","USUBJID":"01-701-1317","MHSEQ":9,"MHTERM":"VERBATIM_1580","MHDECOD":"VERBATIM_1580","MHBODSYS":"(uncoded - no MedDRA SOC in source)","ASTDT":null,"ASTDY":null,"TRTP":"Xanomeline Low Dose","TRT01P":"Xanomeline Low Dose","TRT01PN":null,"TRT01A":"Xanomeline Low Dose","SITEGR1":900,"SITEID":701,"TRTSDT":"2014-05-22","TRTEDT":"2014-11-20","ITTFL":"Y","SAFFL":"Y","EFFFL":"N","COMPLFL":"Y"},{"STUDYID":"CDISCPILOT01","USUBJID":"01-701-1317","MHSEQ":10,"MHTERM":"VERBATIM_1662","MHDECOD":"VERBATIM_1662","MHBODSYS":"(uncoded - no MedDRA SOC in source)","ASTDT":null,"ASTDY":null,"TRTP":"Xanomeline Low Dose","TRT01P":"Xanomeline Low Dose","TRT01PN":null,"TRT01A":"Xanomeline Low Dose","SITEGR1":900,"SITEID":701,"TRTSDT":"2014-05-22","TRTEDT":"2014-11-20","ITTFL":"Y","SAFFL":"Y","EFFFL":"N","COMPLFL":"Y"},{"STUDYID":"CDISCPILOT01","USUBJID":"01-701-1317","MHSEQ":11,"MHTERM":"VERBATIM_1716","MHDECOD":"VERBATIM_1716","MHBODSYS":"(uncoded - no MedDRA SOC in source)","ASTDT":null,"ASTDY":null,"TRTP":"Xanomeline Low Dose","TRT01P":"Xanomeline Low Dose","TRT01PN":null,"TRT01A":"Xanomeline Low Dose","SITEGR1":900,"SITEID":701,"TRTSDT":"2014-05-22","TRTEDT":"2014-11-20","ITTFL":"Y","SAFFL":"Y","EFFFL":"N","COMPLFL":"Y"},{"STUDYID":"CDISCPILOT01","USUBJID":"01-701-1324","MHSEQ":10,"MHTERM":"ALZHEIMER'S DISEASE","MHDECOD":"ALZHEIMER'S DISEASE","MHBODSYS":"(uncoded - no MedDRA SOC in source)","ASTDT":"2009-10-11","ASTDY":null,"TRTP":"Xanomeline Low Dose","TRT01P":"Xanomeline Low Dose","TRT01PN":null,"TRT01A":"Xanomeline Low Dose","SITEGR1":900,"SITEID":701,"TRTSDT":"2012-10-02","TRTEDT":"2013-04-02","ITTFL":"Y","SAFFL":"Y","EFFFL":"N","COMPLFL":"Y"},{"STUDYID":"CDISCPILOT01","USUBJID":"01-701-1324","MHSEQ":5,"MHTERM":"VERBATIM_0206","MHDECOD":"VERBATIM_0206","MHBODSYS":"(uncoded - no MedDRA SOC in source)","ASTDT":null,"ASTDY":null,"TRTP":"Xanomeline Low Dose","TRT01P":"Xanomeline Low Dose","TRT01PN":null,"TRT01A":"Xanomeline Low Dose","SITEGR1":900,"SITEID":701,"TRTSDT":"2012-10-02","TRTEDT":"2013-04-02","ITTFL":"Y","SAFFL":"Y","EFFFL":"N","COMPLFL":"Y"},{"STUDYID":"CDISCPILOT01","USUBJID":"01-701-1324","MHSEQ":6,"MHTERM":"VERBATIM_0722","MHDECOD":"VERBATIM_0722","MHBODSYS":"(uncoded - no MedDRA SOC in source)","ASTDT":null,"ASTDY":null,"TRTP":"Xanomeline Low Dose","TRT01P":"Xanomeline Low Dose","TRT01PN":null,"TRT01A":"Xanomeline Low Dose","SITEGR1":900,"SITEID":701,"TRTSDT":"2012-10-02","TRTEDT":"2013-04-02","ITTFL":"Y","SAFFL":"Y","EFFFL":"N","COMPLFL":"Y"},{"STUDYID":"CDISCPILOT01","USUBJID":"01-701-1324","MHSEQ":7,"MHTERM":"VERBATIM_0809","MHDECOD":"VERBATIM_0809","MHBODSYS":"(uncoded - no MedDRA SOC in source)","ASTDT":null,"ASTDY":null,"TRTP":"Xanomeline Low Dose","TRT01P":"Xanomeline Low Dose","TRT01PN":null,"TRT01A":"Xanomeline Low Dose","SITEGR1":900,"SITEID":701,"TRTSDT":"2012-10-02","TRTEDT":"2013-04-02","ITTFL":"Y","SAFFL":"Y","EFFFL":"N","COMPLFL":"Y"},{"STUDYID":"CDISCPILOT01","USUBJID":"01-701-1324","MHSEQ":1,"MHTERM":"VERBATIM_0884","MHDECOD":"VERBATIM_0884","MHBODSYS":"(uncoded - no MedDRA SOC in source)","ASTDT":null,"ASTDY":null,"TRTP":"Xanomeline Low Dose","TRT01P":"Xanomeline Low Dose","TRT01PN":null,"TRT01A":"Xanomeline Low Dose","SITEGR1":900,"SITEID":701,"TRTSDT":"2012-10-02","TRTEDT":"2013-04-02","ITTFL":"Y","SAFFL":"Y","EFFFL":"N","COMPLFL":"Y"},{"STUDYID":"CDISCPILOT01","USUBJID":"01-701-1324","MHSEQ":2,"MHTERM":"VERBATIM_1065","MHDECOD":"VERBATIM_1065","MHBODSYS":"(uncoded - no MedDRA SOC in source)","ASTDT":null,"ASTDY":null,"TRTP":"Xanomeline Low Dose","TRT01P":"Xanomeline Low Dose","TRT01PN":null,"TRT01A":"Xanomeline Low Dose","SITEGR1":900,"SITEID":701,"TRTSDT":"2012-10-02","TRTEDT":"2013-04-02","ITTFL":"Y","SAFFL":"Y","EFFFL":"N","COMPLFL":"Y"},{"STUDYID":"CDISCPILOT01","USUBJID":"01-701-1324","MHSEQ":8,"MHTERM":"VERBATIM_1583","MHDECOD":"VERBATIM_1583","MHBODSYS":"(uncoded - no MedDRA SOC in source)","ASTDT":null,"ASTDY":null,"TRTP":"Xanomeline Low Dose","TRT01P":"Xanomeline Low Dose","TRT01PN":null,"TRT01A":"Xanomeline Low Dose","SITEGR1":900,"SITEID":701,"TRTSDT":"2012-10-02","TRTEDT":"2013-04-02","ITTFL":"Y","SAFFL":"Y","EFFFL":"N","COMPLFL":"Y"},{"STUDYID":"CDISCPILOT01","USUBJID":"01-701-1324","MHSEQ":9,"MHTERM":"VERBATIM_1640","MHDECOD":"VERBATIM_1640","MHBODSYS":"(uncoded - no MedDRA SOC in source)","ASTDT":null,"ASTDY":null,"TRTP":"Xanomeline Low Dose","TRT01P":"Xanomeline Low Dose","TRT01PN":null,"TRT01A":"Xanomeline Low Dose","SITEGR1":900,"SITEID":701,"TRTSDT":"2012-10-02","TRTEDT":"2013-04-02","ITTFL":"Y","SAFFL":"Y","EFFFL":"N","COMPLFL":"Y"},{"STUDYID":"CDISCPILOT01","USUBJID":"01-701-1324","MHSEQ":3,"MHTERM":"VERBATIM_1683","MHDECOD":"VERBATIM_1683","MHBODSYS":"(uncoded - no MedDRA SOC in source)","ASTDT":null,"ASTDY":null,"TRTP":"Xanomeline Low Dose","TRT01P":"Xanomeline Low Dose","TRT01PN":null,"TRT01A":"Xanomeline Low Dose","SITEGR1":900,"SITEID":701,"TRTSDT":"2012-10-02","TRTEDT":"2013-04-02","ITTFL":"Y","SAFFL":"Y","EFFFL":"N","COMPLFL":"Y"},{"STUDYID":"CDISCPILOT01","USUBJID":"01-701-1324","MHSEQ":4,"MHTERM":"VERBATIM_1716","MHDECOD":"VERBATIM_1716","MHBODSYS":"(uncoded - no MedDRA SOC in source)","ASTDT":null,"ASTDY":null,"TRTP":"Xanomeline Low Dose","TRT01P":"Xanomeline Low Dose","TRT01PN":null,"TRT01A":"Xanomeline Low Dose","SITEGR1":900,"SITEID":701,"TRTSDT":"2012-10-02","TRTEDT":"2013-04-02","ITTFL":"Y","SAFFL":"Y","EFFFL":"N","COMPLFL":"Y"},{"STUDYID":"CDISCPILOT01","USUBJID":"01-701-1341","MHSEQ":14,"MHTERM":"ALZHEIMER'S DISEASE","MHDECOD":"ALZHEIMER'S DISEASE","MHBODSYS":"(uncoded - no MedDRA SOC in source)","ASTDT":"2006-06-05","ASTDY":null,"TRTP":"Xanomeline Low Dose","TRT01P":"Xanomeline Low Dose","TRT01PN":null,"TRT01A":"Xanomeline Low Dose","SITEGR1":900,"SITEID":701,"TRTSDT":"2013-01-05","TRTEDT":"2013-01-26","ITTFL":"Y","SAFFL":"Y","EFFFL":"N","COMPLFL":"N"},{"STUDYID":"CDISCPILOT01","USUBJID":"01-701-1341","MHSEQ":1,"MHTERM":"VERBATIM_0119","MHDECOD":"VERBATIM_0119","MHBODSYS":"(uncoded - no MedDRA SOC in source)","ASTDT":null,"ASTDY":null,"TRTP":"Xanomeline Low Dose","TRT01P":"Xanomeline Low Dose","TRT01PN":null,"TRT01A":"Xanomeline Low Dose","SITEGR1":900,"SITEID":701,"TRTSDT":"2013-01-05","TRTEDT":"2013-01-26","ITTFL":"Y","SAFFL":"Y","EFFFL":"N","COMPLFL":"N"},{"STUDYID":"CDISCPILOT01","USUBJID":"01-701-1341","MHSEQ":2,"MHTERM":"VERBATIM_0182","MHDECOD":"VERBATIM_0182","MHBODSYS":"(uncoded - no MedDRA SOC in source)","ASTDT":null,"ASTDY":null,"TRTP":"Xanomeline Low Dose","TRT01P":"Xanomeline Low Dose","TRT01PN":null,"TRT01A":"Xanomeline Low Dose","SITEGR1":900,"SITEID":701,"TRTSDT":"2013-01-05","TRTEDT":"2013-01-26","ITTFL":"Y","SAFFL":"Y","EFFFL":"N","COMPLFL":"N"},{"STUDYID":"CDISCPILOT01","USUBJID":"01-701-1341","MHSEQ":3,"MHTERM":"VERBATIM_0342","MHDECOD":"VERBATIM_0342","MHBODSYS":"(uncoded - no MedDRA SOC in source)","ASTDT":null,"ASTDY":null,"TRTP":"Xanomeline Low Dose","TRT01P":"Xanomeline Low Dose","TRT01PN":null,"TRT01A":"Xanomeline Low Dose","SITEGR1":900,"SITEID":701,"TRTSDT":"2013-01-05","TRTEDT":"2013-01-26","ITTFL":"Y","SAFFL":"Y","EFFFL":"N","COMPLFL":"N"},{"STUDYID":"CDISCPILOT01","USUBJID":"01-701-1341","MHSEQ":10,"MHTERM":"VERBATIM_0433","MHDECOD":"VERBATIM_0433","MHBODSYS":"(uncoded - no MedDRA SOC in source)","ASTDT":null,"ASTDY":null,"TRTP":"Xanomeline Low Dose","TRT01P":"Xanomeline Low Dose","TRT01PN":null,"TRT01A":"Xanomeline Low Dose","SITEGR1":900,"SITEID":701,"TRTSDT":"2013-01-05","TRTEDT":"2013-01-26","ITTFL":"Y","SAFFL":"Y","EFFFL":"N","COMPLFL":"N"},{"STUDYID":"CDISCPILOT01","USUBJID":"01-701-1341","MHSEQ":4,"MHTERM":"VERBATIM_0676","MHDECOD":"VERBATIM_0676","MHBODSYS":"(uncoded - no MedDRA SOC in source)","ASTDT":null,"ASTDY":null,"TRTP":"Xanomeline Low Dose","TRT01P":"Xanomeline Low Dose","TRT01PN":null,"TRT01A":"Xanomeline Low Dose","SITEGR1":900,"SITEID":701,"TRTSDT":"2013-01-05","TRTEDT":"2013-01-26","ITTFL":"Y","SAFFL":"Y","EFFFL":"N","COMPLFL":"N"},{"STUDYID":"CDISCPILOT01","USUBJID":"01-701-1341","MHSEQ":11,"MHTERM":"VERBATIM_0919","MHDECOD":"VERBATIM_0919","MHBODSYS":"(uncoded - no MedDRA SOC in source)","ASTDT":null,"ASTDY":null,"TRTP":"Xanomeline Low Dose","TRT01P":"Xanomeline Low Dose","TRT01PN":null,"TRT01A":"Xanomeline Low Dose","SITEGR1":900,"SITEID":701,"TRTSDT":"2013-01-05","TRTEDT":"2013-01-26","ITTFL":"Y","SAFFL":"Y","EFFFL":"N","COMPLFL":"N"},{"STUDYID":"CDISCPILOT01","USUBJID":"01-701-1341","MHSEQ":5,"MHTERM":"VERBATIM_1049","MHDECOD":"VERBATIM_1049","MHBODSYS":"(uncoded - no MedDRA SOC in source)","ASTDT":null,"ASTDY":null,"TRTP":"Xanomeline Low Dose","TRT01P":"Xanomeline Low Dose","TRT01PN":null,"TRT01A":"Xanomeline Low Dose","SITEGR1":900,"SITEID":701,"TRTSDT":"2013-01-05","TRTEDT":"2013-01-26","ITTFL":"Y","SAFFL":"Y","EFFFL":"N","COMPLFL":"N"},{"STUDYID":"CDISCPILOT01","USUBJID":"01-701-1341","MHSEQ":6,"MHTERM":"VERBATIM_1236","MHDECOD":"VERBATIM_1236","MHBODSYS":"(uncoded - no MedDRA SOC in source)","ASTDT":null,"ASTDY":null,"TRTP":"Xanomeline Low Dose","TRT01P":"Xanomeline Low Dose","TRT01PN":null,"TRT01A":"Xanomeline Low Dose","SITEGR1":900,"SITEID":701,"TRTSDT":"2013-01-05","TRTEDT":"2013-01-26","ITTFL":"Y","SAFFL":"Y","EFFFL":"N","COMPLFL":"N"},{"STUDYID":"CDISCPILOT01","USUBJID":"01-701-1341","MHSEQ":13,"MHTERM":"VERBATIM_1302","MHDECOD":"VERBATIM_1302","MHBODSYS":"(uncoded - no MedDRA SOC in source)","ASTDT":null,"ASTDY":null,"TRTP":"Xanomeline Low Dose","TRT01P":"Xanomeline Low Dose","TRT01PN":null,"TRT01A":"Xanomeline Low Dose","SITEGR1":900,"SITEID":701,"TRTSDT":"2013-01-05","TRTEDT":"2013-01-26","ITTFL":"Y","SAFFL":"Y","EFFFL":"N","COMPLFL":"N"},{"STUDYID":"CDISCPILOT01","USUBJID":"01-701-1341","MHSEQ":12,"MHTERM":"VERBATIM_1505","MHDECOD":"VERBATIM_1505","MHBODSYS":"(uncoded - no MedDRA SOC in source)","ASTDT":null,"ASTDY":null,"TRTP":"Xanomeline Low Dose","TRT01P":"Xanomeline Low Dose","TRT01PN":null,"TRT01A":"Xanomeline Low Dose","SITEGR1":900,"SITEID":701,"TRTSDT":"2013-01-05","TRTEDT":"2013-01-26","ITTFL":"Y","SAFFL":"Y","EFFFL":"N","COMPLFL":"N"},{"STUDYID":"CDISCPILOT01","USUBJID":"01-701-1341","MHSEQ":7,"MHTERM":"VERBATIM_1592","MHDECOD":"VERBATIM_1592","MHBODSYS":"(uncoded - no MedDRA SOC in source)","ASTDT":null,"ASTDY":null,"TRTP":"Xanomeline Low Dose","TRT01P":"Xanomeline Low Dose","TRT01PN":null,"TRT01A":"Xanomeline Low Dose","SITEGR1":900,"SITEID":701,"TRTSDT":"2013-01-05","TRTEDT":"2013-01-26","ITTFL":"Y","SAFFL":"Y","EFFFL":"N","COMPLFL":"N"},{"STUDYID":"CDISCPILOT01","USUBJID":"01-701-1341","MHSEQ":8,"MHTERM":"VERBATIM_1683","MHDECOD":"VERBATIM_1683","MHBODSYS":"(uncoded - no MedDRA SOC in source)","ASTDT":null,"ASTDY":null,"TRTP":"Xanomeline Low Dose","TRT01P":"Xanomeline Low Dose","TRT01PN":null,"TRT01A":"Xanomeline Low Dose","SITEGR1":900,"SITEID":701,"TRTSDT":"2013-01-05","TRTEDT":"2013-01-26","ITTFL":"Y","SAFFL":"Y","EFFFL":"N","COMPLFL":"N"},{"STUDYID":"CDISCPILOT01","USUBJID":"01-701-1341","MHSEQ":9,"MHTERM":"VERBATIM_1716","MHDECOD":"VERBATIM_1716","MHBODSYS":"(uncoded - no MedDRA SOC in source)","ASTDT":null,"ASTDY":null,"TRTP":"Xanomeline Low Dose","TRT01P":"Xanomeline Low Dose","TRT01PN":null,"TRT01A":"Xanomeline Low Dose","SITEGR1":900,"SITEID":701,"TRTSDT":"2013-01-05","TRTEDT":"2013-01-26","ITTFL":"Y","SAFFL":"Y","EFFFL":"N","COMPLFL":"N"},{"STUDYID":"CDISCPILOT01","USUBJID":"01-701-1345","MHSEQ":8,"MHTERM":"ALZHEIMER'S DISEASE","MHDECOD":"ALZHEIMER'S DISEASE","MHBODSYS":"(uncoded - no MedDRA SOC in source)","ASTDT":"2010-11-05","ASTDY":null,"TRTP":"Placebo","TRT01P":"Placebo","TRT01PN":null,"TRT01A":"Placebo","SITEGR1":900,"SITEID":701,"TRTSDT":"2013-10-08","TRTEDT":"2014-03-18","ITTFL":"Y","SAFFL":"Y","EFFFL":"N","COMPLFL":"N"},{"STUDYID":"CDISCPILOT01","USUBJID":"01-701-1345","MHSEQ":1,"MHTERM":"VERBATIM_0507","MHDECOD":"VERBATIM_0507","MHBODSYS":"(uncoded - no MedDRA SOC in source)","ASTDT":null,"ASTDY":null,"TRTP":"Placebo","TRT01P":"Placebo","TRT01PN":null,"TRT01A":"Placebo","SITEGR1":900,"SITEID":701,"TRTSDT":"2013-10-08","TRTEDT":"2014-03-18","ITTFL":"Y","SAFFL":"Y","EFFFL":"N","COMPLFL":"N"},{"STUDYID":"CDISCPILOT01","USUBJID":"01-701-1345","MHSEQ":9,"MHTERM":"VERBATIM_0837","MHDECOD":"VERBATIM_0837","MHBODSYS":"(uncoded - no MedDRA SOC in source)","ASTDT":null,"ASTDY":null,"TRTP":"Placebo","TRT01P":"Placebo","TRT01PN":null,"TRT01A":"Placebo","SITEGR1":900,"SITEID":701,"TRTSDT":"2013-10-08","TRTEDT":"2014-03-18","ITTFL":"Y","SAFFL":"Y","EFFFL":"N","COMPLFL":"N"},{"STUDYID":"CDISCPILOT01","USUBJID":"01-701-1345","MHSEQ":6,"MHTERM":"VERBATIM_0841","MHDECOD":"VERBATIM_0841","MHBODSYS":"(uncoded - no MedDRA SOC in source)","ASTDT":null,"ASTDY":null,"TRTP":"Placebo","TRT01P":"Placebo","TRT01PN":null,"TRT01A":"Placebo","SITEGR1":900,"SITEID":701,"TRTSDT":"2013-10-08","TRTEDT":"2014-03-18","ITTFL":"Y","SAFFL":"Y","EFFFL":"N","COMPLFL":"N"},{"STUDYID":"CDISCPILOT01","USUBJID":"01-701-1345","MHSEQ":2,"MHTERM":"VERBATIM_0919","MHDECOD":"VERBATIM_0919","MHBODSYS":"(uncoded - no MedDRA SOC in source)","ASTDT":null,"ASTDY":null,"TRTP":"Placebo","TRT01P":"Placebo","TRT01PN":null,"TRT01A":"Placebo","SITEGR1":900,"SITEID":701,"TRTSDT":"2013-10-08","TRTEDT":"2014-03-18","ITTFL":"Y","SAFFL":"Y","EFFFL":"N","COMPLFL":"N"},{"STUDYID":"CDISCPILOT01","USUBJID":"01-701-1345","MHSEQ":7,"MHTERM":"VERBATIM_1583","MHDECOD":"VERBATIM_1583","MHBODSYS":"(uncoded - no MedDRA SOC in source)","ASTDT":"2010-03-22","ASTDY":null,"TRTP":"Placebo","TRT01P":"Placebo","TRT01PN":null,"TRT01A":"Placebo","SITEGR1":900,"SITEID":701,"TRTSDT":"2013-10-08","TRTEDT":"2014-03-18","ITTFL":"Y","SAFFL":"Y","EFFFL":"N","COMPLFL":"N"},{"STUDYID":"CDISCPILOT01","USUBJID":"01-701-1345","MHSEQ":3,"MHTERM":"VERBATIM_1716","MHDECOD":"VERBATIM_1716","MHBODSYS":"(uncoded - no MedDRA SOC in source)","ASTDT":null,"ASTDY":null,"TRTP":"Placebo","TRT01P":"Placebo","TRT01PN":null,"TRT01A":"Placebo","SITEGR1":900,"SITEID":701,"TRTSDT":"2013-10-08","TRTEDT":"2014-03-18","ITTFL":"Y","SAFFL":"Y","EFFFL":"N","COMPLFL":"N"},{"STUDYID":"CDISCPILOT01","USUBJID":"01-701-1345","MHSEQ":4,"MHTERM":"VERBATIM_1769","MHDECOD":"VERBATIM_1769","MHBODSYS":"(uncoded - no MedDRA SOC in source)","ASTDT":"1963-06-22","ASTDY":null,"TRTP":"Placebo","TRT01P":"Placebo","TRT01PN":null,"TRT01A":"Placebo","SITEGR1":900,"SITEID":701,"TRTSDT":"2013-10-08","TRTEDT":"2014-03-18","ITTFL":"Y","SAFFL":"Y","EFFFL":"N","COMPLFL":"N"},{"STUDYID":"CDISCPILOT01","USUBJID":"01-701-1345","MHSEQ":5,"MHTERM":"VERBATIM_1800","MHDECOD":"VERBATIM_1800","MHBODSYS":"(uncoded - no MedDRA SOC in source)","ASTDT":null,"ASTDY":null,"TRTP":"Placebo","TRT01P":"Placebo","TRT01PN":null,"TRT01A":"Placebo","SITEGR1":900,"SITEID":701,"TRTSDT":"2013-10-08","TRTEDT":"2014-03-18","ITTFL":"Y","SAFFL":"Y","EFFFL":"N","COMPLFL":"N"},{"STUDYID":"CDISCPILOT01","USUBJID":"01-701-1360","MHSEQ":12,"MHTERM":"ALZHEIMER'S DISEASE","MHDECOD":"ALZHEIMER'S DISEASE","MHBODSYS":"(uncoded - no MedDRA SOC in source)","ASTDT":"2008-12-02","ASTDY":null,"TRTP":"Xanomeline High Dose","TRT01P":"Xanomeline High Dose","TRT01PN":null,"TRT01A":"Xanomeline Low Dose","SITEGR1":900,"SITEID":701,"TRTSDT":"2013-07-31","TRTEDT":"2013-08-05","ITTFL":"Y","SAFFL":"Y","EFFFL":"N","COMPLFL":"N"},{"STUDYID":"CDISCPILOT01","USUBJID":"01-701-1360","MHSEQ":1,"MHTERM":"VERBATIM_0512","MHDECOD":"VERBATIM_0512","MHBODSYS":"(uncoded - no MedDRA SOC in source)","ASTDT":null,"ASTDY":null,"TRTP":"Xanomeline High Dose","TRT01P":"Xanomeline High Dose","TRT01PN":null,"TRT01A":"Xanomeline Low Dose","SITEGR1":900,"SITEID":701,"TRTSDT":"2013-07-31","TRTEDT":"2013-08-05","ITTFL":"Y","SAFFL":"Y","EFFFL":"N","COMPLFL":"N"},{"STUDYID":"CDISCPILOT01","USUBJID":"01-701-1360","MHSEQ":2,"MHTERM":"VERBATIM_0611","MHDECOD":"VERBATIM_0611","MHBODSYS":"(uncoded - no MedDRA SOC in source)","ASTDT":null,"ASTDY":null,"TRTP":"Xanomeline High Dose","TRT01P":"Xanomeline High Dose","TRT01PN":null,"TRT01A":"Xanomeline Low Dose","SITEGR1":900,"SITEID":701,"TRTSDT":"2013-07-31","TRTEDT":"2013-08-05","ITTFL":"Y","SAFFL":"Y","EFFFL":"N","COMPLFL":"N"},{"STUDYID":"CDISCPILOT01","USUBJID":"01-701-1360","MHSEQ":3,"MHTERM":"VERBATIM_0845","MHDECOD":"VERBATIM_0845","MHBODSYS":"(uncoded - no MedDRA SOC in source)","ASTDT":null,"ASTDY":null,"TRTP":"Xanomeline High Dose","TRT01P":"Xanomeline High Dose","TRT01PN":null,"TRT01A":"Xanomeline Low Dose","SITEGR1":900,"SITEID":701,"TRTSDT":"2013-07-31","TRTEDT":"2013-08-05","ITTFL":"Y","SAFFL":"Y","EFFFL":"N","COMPLFL":"N"},{"STUDYID":"CDISCPILOT01","USUBJID":"01-701-1360","MHSEQ":11,"MHTERM":"VERBATIM_0898","MHDECOD":"VERBATIM_0898","MHBODSYS":"(uncoded - no MedDRA SOC in source)","ASTDT":null,"ASTDY":null,"TRTP":"Xanomeline High Dose","TRT01P":"Xanomeline High Dose","TRT01PN":null,"TRT01A":"Xanomeline Low Dose","SITEGR1":900,"SITEID":701,"TRTSDT":"2013-07-31","TRTEDT":"2013-08-05","ITTFL":"Y","SAFFL":"Y","EFFFL":"N","COMPLFL":"N"},{"STUDYID":"CDISCPILOT01","USUBJID":"01-701-1360","MHSEQ":4,"MHTERM":"VERBATIM_0929","MHDECOD":"VERBATIM_0929","MHBODSYS":"(uncoded - no MedDRA SOC in source)","ASTDT":null,"ASTDY":null,"TRTP":"Xanomeline High Dose","TRT01P":"Xanomeline High Dose","TRT01PN":null,"TRT01A":"Xanomeline Low Dose","SITEGR1":900,"SITEID":701,"TRTSDT":"2013-07-31","TRTEDT":"2013-08-05","ITTFL":"Y","SAFFL":"Y","EFFFL":"N","COMPLFL":"N"},{"STUDYID":"CDISCPILOT01","USUBJID":"01-701-1360","MHSEQ":9,"MHTERM":"VERBATIM_0944","MHDECOD":"VERBATIM_0944","MHBODSYS":"(uncoded - no MedDRA SOC in source)","ASTDT":null,"ASTDY":null,"TRTP":"Xanomeline High Dose","TRT01P":"Xanomeline High Dose","TRT01PN":null,"TRT01A":"Xanomeline Low Dose","SITEGR1":900,"SITEID":701,"TRTSDT":"2013-07-31","TRTEDT":"2013-08-05","ITTFL":"Y","SAFFL":"Y","EFFFL":"N","COMPLFL":"N"},{"STUDYID":"CDISCPILOT01","USUBJID":"01-701-1360","MHSEQ":14,"MHTERM":"VERBATIM_1000","MHDECOD":"VERBATIM_1000","MHBODSYS":"(uncoded - no MedDRA SOC in source)","ASTDT":null,"ASTDY":null,"TRTP":"Xanomeline High Dose","TRT01P":"Xanomeline High Dose","TRT01PN":null,"TRT01A":"Xanomeline Low Dose","SITEGR1":900,"SITEID":701,"TRTSDT":"2013-07-31","TRTEDT":"2013-08-05","ITTFL":"Y","SAFFL":"Y","EFFFL":"N","COMPLFL":"N"},{"STUDYID":"CDISCPILOT01","USUBJID":"01-701-1360","MHSEQ":5,"MHTERM":"VERBATIM_1026","MHDECOD":"VERBATIM_1026","MHBODSYS":"(uncoded - no MedDRA SOC in source)","ASTDT":null,"ASTDY":null,"TRTP":"Xanomeline High Dose","TRT01P":"Xanomeline High Dose","TRT01PN":null,"TRT01A":"Xanomeline Low Dose","SITEGR1":900,"SITEID":701,"TRTSDT":"2013-07-31","TRTEDT":"2013-08-05","ITTFL":"Y","SAFFL":"Y","EFFFL":"N","COMPLFL":"N"},{"STUDYID":"CDISCPILOT01","USUBJID":"01-701-1360","MHSEQ":6,"MHTERM":"VERBATIM_1048","MHDECOD":"VERBATIM_1048","MHBODSYS":"(uncoded - no MedDRA SOC in source)","ASTDT":null,"ASTDY":null,"TRTP":"Xanomeline High Dose","TRT01P":"Xanomeline High Dose","TRT01PN":null,"TRT01A":"Xanomeline Low Dose","SITEGR1":900,"SITEID":701,"TRTSDT":"2013-07-31","TRTEDT":"2013-08-05","ITTFL":"Y","SAFFL":"Y","EFFFL":"N","COMPLFL":"N"},{"STUDYID":"CDISCPILOT01","USUBJID":"01-701-1360","MHSEQ":10,"MHTERM":"VERBATIM_1187","MHDECOD":"VERBATIM_1187","MHBODSYS":"(uncoded - no MedDRA SOC in source)","ASTDT":null,"ASTDY":null,"TRTP":"Xanomeline High Dose","TRT01P":"Xanomeline High Dose","TRT01PN":null,"TRT01A":"Xanomeline Low Dose","SITEGR1":900,"SITEID":701,"TRTSDT":"2013-07-31","TRTEDT":"2013-08-05","ITTFL":"Y","SAFFL":"Y","EFFFL":"N","COMPLFL":"N"},{"STUDYID":"CDISCPILOT01","USUBJID":"01-701-1360","MHSEQ":15,"MHTERM":"VERBATIM_1594","MHDECOD":"VERBATIM_1594","MHBODSYS":"(uncoded - no MedDRA SOC in source)","ASTDT":null,"ASTDY":null,"TRTP":"Xanomeline High Dose","TRT01P":"Xanomeline High Dose","TRT01PN":null,"TRT01A":"Xanomeline Low Dose","SITEGR1":900,"SITEID":701,"TRTSDT":"2013-07-31","TRTEDT":"2013-08-05","ITTFL":"Y","SAFFL":"Y","EFFFL":"N","COMPLFL":"N"},{"STUDYID":"CDISCPILOT01","USUBJID":"01-701-1360","MHSEQ":8,"MHTERM":"VERBATIM_1716","MHDECOD":"VERBATIM_1716","MHBODSYS":"(uncoded - no MedDRA SOC in source)","ASTDT":null,"ASTDY":null,"TRTP":"Xanomeline High Dose","TRT01P":"Xanomeline High Dose","TRT01PN":null,"TRT01A":"Xanomeline Low Dose","SITEGR1":900,"SITEID":701,"TRTSDT":"2013-07-31","TRTEDT":"2013-08-05","ITTFL":"Y","SAFFL":"Y","EFFFL":"N","COMPLFL":"N"},{"STUDYID":"CDISCPILOT01","USUBJID":"01-701-1360","MHSEQ":13,"MHTERM":"VERBATIM_1753","MHDECOD":"VERBATIM_1753","MHBODSYS":"(uncoded - no MedDRA SOC in source)","ASTDT":null,"ASTDY":null,"TRTP":"Xanomeline High Dose","TRT01P":"Xanomeline High Dose","TRT01PN":null,"TRT01A":"Xanomeline Low Dose","SITEGR1":900,"SITEID":701,"TRTSDT":"2013-07-31","TRTEDT":"2013-08-05","ITTFL":"Y","SAFFL":"Y","EFFFL":"N","COMPLFL":"N"},{"STUDYID":"CDISCPILOT01","USUBJID":"01-701-1360","MHSEQ":7,"MHTERM":"VERBATIM_1759","MHDECOD":"VERBATIM_1759","MHBODSYS":"(uncoded - no MedDRA SOC in source)","ASTDT":null,"ASTDY":null,"TRTP":"Xanomeline High Dose","TRT01P":"Xanomeline High Dose","TRT01PN":null,"TRT01A":"Xanomeline Low Dose","SITEGR1":900,"SITEID":701,"TRTSDT":"2013-07-31","TRTEDT":"2013-08-05","ITTFL":"Y","SAFFL":"Y","EFFFL":"N","COMPLFL":"N"},{"STUDYID":"CDISCPILOT01","USUBJID":"01-701-1363","MHSEQ":9,"MHTERM":"ALZHEIMER'S DISEASE","MHDECOD":"ALZHEIMER'S DISEASE","MHBODSYS":"(uncoded - no MedDRA SOC in source)","ASTDT":"2005-10-20","ASTDY":null,"TRTP":"Placebo","TRT01P":"Placebo","TRT01PN":null,"TRT01A":"Placebo","SITEGR1":900,"SITEID":701,"TRTSDT":"2013-05-30","TRTEDT":"2013-11-27","ITTFL":"Y","SAFFL":"Y","EFFFL":"N","COMPLFL":"Y"},{"STUDYID":"CDISCPILOT01","USUBJID":"01-701-1363","MHSEQ":11,"MHTERM":"VERBATIM_0030","MHDECOD":"VERBATIM_0030","MHBODSYS":"(uncoded - no MedDRA SOC in source)","ASTDT":null,"ASTDY":null,"TRTP":"Placebo","TRT01P":"Placebo","TRT01PN":null,"TRT01A":"Placebo","SITEGR1":900,"SITEID":701,"TRTSDT":"2013-05-30","TRTEDT":"2013-11-27","ITTFL":"Y","SAFFL":"Y","EFFFL":"N","COMPLFL":"Y"},{"STUDYID":"CDISCPILOT01","USUBJID":"01-701-1363","MHSEQ":1,"MHTERM":"VERBATIM_0094","MHDECOD":"VERBATIM_0094","MHBODSYS":"(uncoded - no MedDRA SOC in source)","ASTDT":null,"ASTDY":null,"TRTP":"Placebo","TRT01P":"Placebo","TRT01PN":null,"TRT01A":"Placebo","SITEGR1":900,"SITEID":701,"TRTSDT":"2013-05-30","TRTEDT":"2013-11-27","ITTFL":"Y","SAFFL":"Y","EFFFL":"N","COMPLFL":"Y"},{"STUDYID":"CDISCPILOT01","USUBJID":"01-701-1363","MHSEQ":2,"MHTERM":"VERBATIM_0120","MHDECOD":"VERBATIM_0120","MHBODSYS":"(uncoded - no MedDRA SOC in source)","ASTDT":null,"ASTDY":null,"TRTP":"Placebo","TRT01P":"Placebo","TRT01PN":null,"TRT01A":"Placebo","SITEGR1":900,"SITEID":701,"TRTSDT":"2013-05-30","TRTEDT":"2013-11-27","ITTFL":"Y","SAFFL":"Y","EFFFL":"N","COMPLFL":"Y"},{"STUDYID":"CDISCPILOT01","USUBJID":"01-701-1363","MHSEQ":3,"MHTERM":"VERBATIM_0301","MHDECOD":"VERBATIM_0301","MHBODSYS":"(uncoded - no MedDRA SOC in source)","ASTDT":null,"ASTDY":null,"TRTP":"Placebo","TRT01P":"Placebo","TRT01PN":null,"TRT01A":"Placebo","SITEGR1":900,"SITEID":701,"TRTSDT":"2013-05-30","TRTEDT":"2013-11-27","ITTFL":"Y","SAFFL":"Y","EFFFL":"N","COMPLFL":"Y"},{"STUDYID":"CDISCPILOT01","USUBJID":"01-701-1363","MHSEQ":10,"MHTERM":"VERBATIM_0302","MHDECOD":"VERBATIM_0302","MHBODSYS":"(uncoded - no MedDRA SOC in source)","ASTDT":null,"ASTDY":null,"TRTP":"Placebo","TRT01P":"Placebo","TRT01PN":null,"TRT01A":"Placebo","SITEGR1":900,"SITEID":701,"TRTSDT":"2013-05-30","TRTEDT":"2013-11-27","ITTFL":"Y","SAFFL":"Y","EFFFL":"N","COMPLFL":"Y"},{"STUDYID":"CDISCPILOT01","USUBJID":"01-701-1363","MHSEQ":13,"MHTERM":"VERBATIM_0336","MHDECOD":"VERBATIM_0336","MHBODSYS":"(uncoded - no MedDRA SOC in source)","ASTDT":null,"ASTDY":null,"TRTP":"Placebo","TRT01P":"Placebo","TRT01PN":null,"TRT01A":"Placebo","SITEGR1":900,"SITEID":701,"TRTSDT":"2013-05-30","TRTEDT":"2013-11-27","ITTFL":"Y","SAFFL":"Y","EFFFL":"N","COMPLFL":"Y"},{"STUDYID":"CDISCPILOT01","USUBJID":"01-701-1363","MHSEQ":4,"MHTERM":"VERBATIM_0391","MHDECOD":"VERBATIM_0391","MHBODSYS":"(uncoded - no MedDRA SOC in source)","ASTDT":null,"ASTDY":null,"TRTP":"Placebo","TRT01P":"Placebo","TRT01PN":null,"TRT01A":"Placebo","SITEGR1":900,"SITEID":701,"TRTSDT":"2013-05-30","TRTEDT":"2013-11-27","ITTFL":"Y","SAFFL":"Y","EFFFL":"N","COMPLFL":"Y"},{"STUDYID":"CDISCPILOT01","USUBJID":"01-701-1363","MHSEQ":5,"MHTERM":"VERBATIM_0443","MHDECOD":"VERBATIM_0443","MHBODSYS":"(uncoded - no MedDRA SOC in source)","ASTDT":null,"ASTDY":null,"TRTP":"Placebo","TRT01P":"Placebo","TRT01PN":null,"TRT01A":"Placebo","SITEGR1":900,"SITEID":701,"TRTSDT":"2013-05-30","TRTEDT":"2013-11-27","ITTFL":"Y","SAFFL":"Y","EFFFL":"N","COMPLFL":"Y"},{"STUDYID":"CDISCPILOT01","USUBJID":"01-701-1363","MHSEQ":6,"MHTERM":"VERBATIM_0800","MHDECOD":"VERBATIM_0800","MHBODSYS":"(uncoded - no MedDRA SOC in source)","ASTDT":null,"ASTDY":null,"TRTP":"Placebo","TRT01P":"Placebo","TRT01PN":null,"TRT01A":"Placebo","SITEGR1":900,"SITEID":701,"TRTSDT":"2013-05-30","TRTEDT":"2013-11-27","ITTFL":"Y","SAFFL":"Y","EFFFL":"N","COMPLFL":"Y"},{"STUDYID":"CDISCPILOT01","USUBJID":"01-701-1363","MHSEQ":14,"MHTERM":"VERBATIM_0987","MHDECOD":"VERBATIM_0987","MHBODSYS":"(uncoded - no MedDRA SOC in source)","ASTDT":null,"ASTDY":null,"TRTP":"Placebo","TRT01P":"Placebo","TRT01PN":null,"TRT01A":"Placebo","SITEGR1":900,"SITEID":701,"TRTSDT":"2013-05-30","TRTEDT":"2013-11-27","ITTFL":"Y","SAFFL":"Y","EFFFL":"N","COMPLFL":"Y"},{"STUDYID":"CDISCPILOT01","USUBJID":"01-701-1363","MHSEQ":15,"MHTERM":"VERBATIM_1049","MHDECOD":"VERBATIM_1049","MHBODSYS":"(uncoded - no MedDRA SOC in source)","ASTDT":null,"ASTDY":null,"TRTP":"Placebo","TRT01P":"Placebo","TRT01PN":null,"TRT01A":"Placebo","SITEGR1":900,"SITEID":701,"TRTSDT":"2013-05-30","TRTEDT":"2013-11-27","ITTFL":"Y","SAFFL":"Y","EFFFL":"N","COMPLFL":"Y"},{"STUDYID":"CDISCPILOT01","USUBJID":"01-701-1363","MHSEQ":12,"MHTERM":"VERBATIM_1405","MHDECOD":"VERBATIM_1405","MHBODSYS":"(uncoded - no MedDRA SOC in source)","ASTDT":null,"ASTDY":null,"TRTP":"Placebo","TRT01P":"Placebo","TRT01PN":null,"TRT01A":"Placebo","SITEGR1":900,"SITEID":701,"TRTSDT":"2013-05-30","TRTEDT":"2013-11-27","ITTFL":"Y","SAFFL":"Y","EFFFL":"N","COMPLFL":"Y"},{"STUDYID":"CDISCPILOT01","USUBJID":"01-701-1363","MHSEQ":7,"MHTERM":"VERBATIM_1460","MHDECOD":"VERBATIM_1460","MHBODSYS":"(uncoded - no MedDRA SOC in source)","ASTDT":null,"ASTDY":null,"TRTP":"Placebo","TRT01P":"Placebo","TRT01PN":null,"TRT01A":"Placebo","SITEGR1":900,"SITEID":701,"TRTSDT":"2013-05-30","TRTEDT":"2013-11-27","ITTFL":"Y","SAFFL":"Y","EFFFL":"N","COMPLFL":"Y"},{"STUDYID":"CDISCPILOT01","USUBJID":"01-701-1363","MHSEQ":8,"MHTERM":"VERBATIM_1532","MHDECOD":"VERBATIM_1532","MHBODSYS":"(uncoded - no MedDRA SOC in source)","ASTDT":null,"ASTDY":null,"TRTP":"Placebo","TRT01P":"Placebo","TRT01PN":null,"TRT01A":"Placebo","SITEGR1":900,"SITEID":701,"TRTSDT":"2013-05-30","TRTEDT":"2013-11-27","ITTFL":"Y","SAFFL":"Y","EFFFL":"N","COMPLFL":"Y"},{"STUDYID":"CDISCPILOT01","USUBJID":"01-701-1383","MHSEQ":13,"MHTERM":"ALZHEIMER'S DISEASE","MHDECOD":"ALZHEIMER'S DISEASE","MHBODSYS":"(uncoded - no MedDRA SOC in source)","ASTDT":"2006-08-20","ASTDY":null,"TRTP":"Xanomeline High Dose","TRT01P":"Xanomeline High Dose","TRT01PN":null,"TRT01A":"Xanomeline High Dose","SITEGR1":900,"SITEID":701,"TRTSDT":"2013-02-04","TRTEDT":"2013-08-06","ITTFL":"Y","SAFFL":"Y","EFFFL":"N","COMPLFL":"Y"},{"STUDYID":"CDISCPILOT01","USUBJID":"01-701-1383","MHSEQ":4,"MHTERM":"VERBATIM_0229","MHDECOD":"VERBATIM_0229","MHBODSYS":"(uncoded - no MedDRA SOC in source)","ASTDT":null,"ASTDY":null,"TRTP":"Xanomeline High Dose","TRT01P":"Xanomeline High Dose","TRT01PN":null,"TRT01A":"Xanomeline High Dose","SITEGR1":900,"SITEID":701,"TRTSDT":"2013-02-04","TRTEDT":"2013-08-06","ITTFL":"Y","SAFFL":"Y","EFFFL":"N","COMPLFL":"Y"},{"STUDYID":"CDISCPILOT01","USUBJID":"01-701-1383","MHSEQ":1,"MHTERM":"VERBATIM_0443","MHDECOD":"VERBATIM_0443","MHBODSYS":"(uncoded - no MedDRA SOC in source)","ASTDT":null,"ASTDY":null,"TRTP":"Xanomeline High Dose","TRT01P":"Xanomeline High Dose","TRT01PN":null,"TRT01A":"Xanomeline High Dose","SITEGR1":900,"SITEID":701,"TRTSDT":"2013-02-04","TRTEDT":"2013-08-06","ITTFL":"Y","SAFFL":"Y","EFFFL":"N","COMPLFL":"Y"},{"STUDYID":"CDISCPILOT01","USUBJID":"01-701-1383","MHSEQ":5,"MHTERM":"VERBATIM_0531","MHDECOD":"VERBATIM_0531","MHBODSYS":"(uncoded - no MedDRA SOC in source)","ASTDT":null,"ASTDY":null,"TRTP":"Xanomeline High Dose","TRT01P":"Xanomeline High Dose","TRT01PN":null,"TRT01A":"Xanomeline High Dose","SITEGR1":900,"SITEID":701,"TRTSDT":"2013-02-04","TRTEDT":"2013-08-06","ITTFL":"Y","SAFFL":"Y","EFFFL":"N","COMPLFL":"Y"},{"STUDYID":"CDISCPILOT01","USUBJID":"01-701-1383","MHSEQ":7,"MHTERM":"VERBATIM_0531","MHDECOD":"VERBATIM_0531","MHBODSYS":"(uncoded - no MedDRA SOC in source)","ASTDT":null,"ASTDY":null,"TRTP":"Xanomeline High Dose","TRT01P":"Xanomeline High Dose","TRT01PN":null,"TRT01A":"Xanomeline High Dose","SITEGR1":900,"SITEID":701,"TRTSDT":"2013-02-04","TRTEDT":"2013-08-06","ITTFL":"Y","SAFFL":"Y","EFFFL":"N","COMPLFL":"Y"},{"STUDYID":"CDISCPILOT01","USUBJID":"01-701-1383","MHSEQ":8,"MHTERM":"VERBATIM_0936","MHDECOD":"VERBATIM_0936","MHBODSYS":"(uncoded - no MedDRA SOC in source)","ASTDT":null,"ASTDY":null,"TRTP":"Xanomeline High Dose","TRT01P":"Xanomeline High Dose","TRT01PN":null,"TRT01A":"Xanomeline High Dose","SITEGR1":900,"SITEID":701,"TRTSDT":"2013-02-04","TRTEDT":"2013-08-06","ITTFL":"Y","SAFFL":"Y","EFFFL":"N","COMPLFL":"Y"},{"STUDYID":"CDISCPILOT01","USUBJID":"01-701-1383","MHSEQ":2,"MHTERM":"VERBATIM_1065","MHDECOD":"VERBATIM_1065","MHBODSYS":"(uncoded - no MedDRA SOC in source)","ASTDT":null,"ASTDY":null,"TRTP":"Xanomeline High Dose","TRT01P":"Xanomeline High Dose","TRT01PN":null,"TRT01A":"Xanomeline High Dose","SITEGR1":900,"SITEID":701,"TRTSDT":"2013-02-04","TRTEDT":"2013-08-06","ITTFL":"Y","SAFFL":"Y","EFFFL":"N","COMPLFL":"Y"},{"STUDYID":"CDISCPILOT01","USUBJID":"01-701-1383","MHSEQ":9,"MHTERM":"VERBATIM_1187","MHDECOD":"VERBATIM_1187","MHBODSYS":"(uncoded - no MedDRA SOC in source)","ASTDT":null,"ASTDY":null,"TRTP":"Xanomeline High Dose","TRT01P":"Xanomeline High Dose","TRT01PN":null,"TRT01A":"Xanomeline High Dose","SITEGR1":900,"SITEID":701,"TRTSDT":"2013-02-04","TRTEDT":"2013-08-06","ITTFL":"Y","SAFFL":"Y","EFFFL":"N","COMPLFL":"Y"},{"STUDYID":"CDISCPILOT01","USUBJID":"01-701-1383","MHSEQ":10,"MHTERM":"VERBATIM_1187","MHDECOD":"VERBATIM_1187","MHBODSYS":"(uncoded - no MedDRA SOC in source)","ASTDT":null,"ASTDY":null,"TRTP":"Xanomeline High Dose","TRT01P":"Xanomeline High Dose","TRT01PN":null,"TRT01A":"Xanomeline High Dose","SITEGR1":900,"SITEID":701,"TRTSDT":"2013-02-04","TRTEDT":"2013-08-06","ITTFL":"Y","SAFFL":"Y","EFFFL":"N","COMPLFL":"Y"},{"STUDYID":"CDISCPILOT01","USUBJID":"01-701-1383","MHSEQ":11,"MHTERM":"VERBATIM_1555","MHDECOD":"VERBATIM_1555","MHBODSYS":"(uncoded - no MedDRA SOC in source)","ASTDT":null,"ASTDY":null,"TRTP":"Xanomeline High Dose","TRT01P":"Xanomeline High Dose","TRT01PN":null,"TRT01A":"Xanomeline High Dose","SITEGR1":900,"SITEID":701,"TRTSDT":"2013-02-04","TRTEDT":"2013-08-06","ITTFL":"Y","SAFFL":"Y","EFFFL":"N","COMPLFL":"Y"},{"STUDYID":"CDISCPILOT01","USUBJID":"01-701-1383","MHSEQ":3,"MHTERM":"VERBATIM_1683","MHDECOD":"VERBATIM_1683","MHBODSYS":"(uncoded - no MedDRA SOC in source)","ASTDT":null,"ASTDY":null,"TRTP":"Xanomeline High Dose","TRT01P":"Xanomeline High Dose","TRT01PN":null,"TRT01A":"Xanomeline High Dose","SITEGR1":900,"SITEID":701,"TRTSDT":"2013-02-04","TRTEDT":"2013-08-06","ITTFL":"Y","SAFFL":"Y","EFFFL":"N","COMPLFL":"Y"},{"STUDYID":"CDISCPILOT01","USUBJID":"01-701-1383","MHSEQ":12,"MHTERM":"VERBATIM_1769","MHDECOD":"VERBATIM_1769","MHBODSYS":"(uncoded - no MedDRA SOC in source)","ASTDT":null,"ASTDY":null,"TRTP":"Xanomeline High Dose","TRT01P":"Xanomeline High Dose","TRT01PN":null,"TRT01A":"Xanomeline High Dose","SITEGR1":900,"SITEID":701,"TRTSDT":"2013-02-04","TRTEDT":"2013-08-06","ITTFL":"Y","SAFFL":"Y","EFFFL":"N","COMPLFL":"Y"},{"STUDYID":"CDISCPILOT01","USUBJID":"01-701-1383","MHSEQ":6,"MHTERM":"VERBATIM_1775","MHDECOD":"VERBATIM_1775","MHBODSYS":"(uncoded - no MedDRA SOC in source)","ASTDT":null,"ASTDY":null,"TRTP":"Xanomeline High Dose","TRT01P":"Xanomeline High Dose","TRT01PN":null,"TRT01A":"Xanomeline High Dose","SITEGR1":900,"SITEID":701,"TRTSDT":"2013-02-04","TRTEDT":"2013-08-06","ITTFL":"Y","SAFFL":"Y","EFFFL":"N","COMPLFL":"Y"},{"STUDYID":"CDISCPILOT01","USUBJID":"01-701-1387","MHSEQ":11,"MHTERM":"ALZHEIMER'S DISEASE","MHDECOD":"ALZHEIMER'S DISEASE","MHBODSYS":"(uncoded - no MedDRA SOC in source)","ASTDT":"2003-08-17","ASTDY":null,"TRTP":"Placebo","TRT01P":"Placebo","TRT01PN":null,"TRT01A":"Placebo","SITEGR1":900,"SITEID":701,"TRTSDT":"2014-03-12","TRTEDT":"2014-03-25","ITTFL":"Y","SAFFL":"Y","EFFFL":"N","COMPLFL":"N"},{"STUDYID":"CDISCPILOT01","USUBJID":"01-701-1387","MHSEQ":1,"MHTERM":"VERBATIM_0261","MHDECOD":"VERBATIM_0261","MHBODSYS":"(uncoded - no MedDRA SOC in source)","ASTDT":null,"ASTDY":null,"TRTP":"Placebo","TRT01P":"Placebo","TRT01PN":null,"TRT01A":"Placebo","SITEGR1":900,"SITEID":701,"TRTSDT":"2014-03-12","TRTEDT":"2014-03-25","ITTFL":"Y","SAFFL":"Y","EFFFL":"N","COMPLFL":"N"},{"STUDYID":"CDISCPILOT01","USUBJID":"01-701-1387","MHSEQ":2,"MHTERM":"VERBATIM_0827","MHDECOD":"VERBATIM_0827","MHBODSYS":"(uncoded - no MedDRA SOC in source)","ASTDT":null,"ASTDY":null,"TRTP":"Placebo","TRT01P":"Placebo","TRT01PN":null,"TRT01A":"Placebo","SITEGR1":900,"SITEID":701,"TRTSDT":"2014-03-12","TRTEDT":"2014-03-25","ITTFL":"Y","SAFFL":"Y","EFFFL":"N","COMPLFL":"N"},{"STUDYID":"CDISCPILOT01","USUBJID":"01-701-1387","MHSEQ":9,"MHTERM":"VERBATIM_0919","MHDECOD":"VERBATIM_0919","MHBODSYS":"(uncoded - no MedDRA SOC in source)","ASTDT":null,"ASTDY":null,"TRTP":"Placebo","TRT01P":"Placebo","TRT01PN":null,"TRT01A":"Placebo","SITEGR1":900,"SITEID":701,"TRTSDT":"2014-03-12","TRTEDT":"2014-03-25","ITTFL":"Y","SAFFL":"Y","EFFFL":"N","COMPLFL":"N"},{"STUDYID":"CDISCPILOT01","USUBJID":"01-701-1387","MHSEQ":13,"MHTERM":"VERBATIM_0951","MHDECOD":"VERBATIM_0951","MHBODSYS":"(uncoded - no MedDRA SOC in source)","ASTDT":null,"ASTDY":null,"TRTP":"Placebo","TRT01P":"Placebo","TRT01PN":null,"TRT01A":"Placebo","SITEGR1":900,"SITEID":701,"TRTSDT":"2014-03-12","TRTEDT":"2014-03-25","ITTFL":"Y","SAFFL":"Y","EFFFL":"N","COMPLFL":"N"},{"STUDYID":"CDISCPILOT01","USUBJID":"01-701-1387","MHSEQ":3,"MHTERM":"VERBATIM_0958","MHDECOD":"VERBATIM_0958","MHBODSYS":"(uncoded - no MedDRA SOC in source)","ASTDT":null,"ASTDY":null,"TRTP":"Placebo","TRT01P":"Placebo","TRT01PN":null,"TRT01A":"Placebo","SITEGR1":900,"SITEID":701,"TRTSDT":"2014-03-12","TRTEDT":"2014-03-25","ITTFL":"Y","SAFFL":"Y","EFFFL":"N","COMPLFL":"N"},{"STUDYID":"CDISCPILOT01","USUBJID":"01-701-1387","MHSEQ":12,"MHTERM":"VERBATIM_0982","MHDECOD":"VERBATIM_0982","MHBODSYS":"(uncoded - no MedDRA SOC in source)","ASTDT":null,"ASTDY":null,"TRTP":"Placebo","TRT01P":"Placebo","TRT01PN":null,"TRT01A":"Placebo","SITEGR1":900,"SITEID":701,"TRTSDT":"2014-03-12","TRTEDT":"2014-03-25","ITTFL":"Y","SAFFL":"Y","EFFFL":"N","COMPLFL":"N"},{"STUDYID":"CDISCPILOT01","USUBJID":"01-701-1387","MHSEQ":4,"MHTERM":"VERBATIM_1022","MHDECOD":"VERBATIM_1022","MHBODSYS":"(uncoded - no MedDRA SOC in source)","ASTDT":null,"ASTDY":null,"TRTP":"Placebo","TRT01P":"Placebo","TRT01PN":null,"TRT01A":"Placebo","SITEGR1":900,"SITEID":701,"TRTSDT":"2014-03-12","TRTEDT":"2014-03-25","ITTFL":"Y","SAFFL":"Y","EFFFL":"N","COMPLFL":"N"},{"STUDYID":"CDISCPILOT01","USUBJID":"01-701-1387","MHSEQ":5,"MHTERM":"VERBATIM_1340","MHDECOD":"VERBATIM_1340","MHBODSYS":"(uncoded - no MedDRA SOC in source)","ASTDT":null,"ASTDY":null,"TRTP":"Placebo","TRT01P":"Placebo","TRT01PN":null,"TRT01A":"Placebo","SITEGR1":900,"SITEID":701,"TRTSDT":"2014-03-12","TRTEDT":"2014-03-25","ITTFL":"Y","SAFFL":"Y","EFFFL":"N","COMPLFL":"N"},{"STUDYID":"CDISCPILOT01","USUBJID":"01-701-1387","MHSEQ":6,"MHTERM":"VERBATIM_1392","MHDECOD":"VERBATIM_1392","MHBODSYS":"(uncoded - no MedDRA SOC in source)","ASTDT":null,"ASTDY":null,"TRTP":"Placebo","TRT01P":"Placebo","TRT01PN":null,"TRT01A":"Placebo","SITEGR1":900,"SITEID":701,"TRTSDT":"2014-03-12","TRTEDT":"2014-03-25","ITTFL":"Y","SAFFL":"Y","EFFFL":"N","COMPLFL":"N"},{"STUDYID":"CDISCPILOT01","USUBJID":"01-701-1387","MHSEQ":8,"MHTERM":"VERBATIM_1716","MHDECOD":"VERBATIM_1716","MHBODSYS":"(uncoded - no MedDRA SOC in source)","ASTDT":null,"ASTDY":null,"TRTP":"Placebo","TRT01P":"Placebo","TRT01PN":null,"TRT01A":"Placebo","SITEGR1":900,"SITEID":701,"TRTSDT":"2014-03-12","TRTEDT":"2014-03-25","ITTFL":"Y","SAFFL":"Y","EFFFL":"N","COMPLFL":"N"},{"STUDYID":"CDISCPILOT01","USUBJID":"01-701-1387","MHSEQ":7,"MHTERM":"VERBATIM_1732","MHDECOD":"VERBATIM_1732","MHBODSYS":"(uncoded - no MedDRA SOC in source)","ASTDT":null,"ASTDY":null,"TRTP":"Placebo","TRT01P":"Placebo","TRT01PN":null,"TRT01A":"Placebo","SITEGR1":900,"SITE