[{"STUDYID":"CDISCPILOT01","USUBJID":"01-701-1015","SUBJID":"1015","SITEID":"701","SITEGR1":"900","COUNTRY":"USA","ARM":"Placebo","ARMCD":"Pbo","ACTARM":"Placebo","ACTARMCD":"Pbo","TRT01P":"Placebo","TRT01PN":null,"TRT01A":"Placebo","TRT01AN":null,"TRTP":"Placebo","TRTSDT":"2014-01-02","TRTEDT":"2014-07-02","TRTDURD":182,"AGE":63,"AGEU":"YEARS","AGEGR1":"<65","AGEGR1N":1,"SEX":"F","RACE":"WHITE","ETHNIC":"HISPANIC OR LATINO","WEIGHTBL":54.43,"HEIGHTBL":147.32,"BMIBL":25.1,"RANDFL":"Y","ITTFL":"Y","SAFFL":"Y","EFFFL":"N","COMPLFL":"Y","EOSSTT":"COMPLETED","DCSREAS":"COMPLETED","EOSDT":"2014-07-02","DTHFL":null,"DTHDT":null,"DTHDY":null,"DTHCAUS":null},{"STUDYID":"CDISCPILOT01","USUBJID":"01-701-1023","SUBJID":"1023","SITEID":"701","SITEGR1":"900","COUNTRY":"USA","ARM":"Placebo","ARMCD":"Pbo","ACTARM":"Placebo","ACTARMCD":"Pbo","TRT01P":"Placebo","TRT01PN":null,"TRT01A":"Placebo","TRT01AN":null,"TRTP":"Placebo","TRTSDT":"2012-08-05","TRTEDT":"2012-09-01","TRTDURD":28,"AGE":64,"AGEU":"YEARS","AGEGR1":"<65","AGEGR1N":1,"SEX":"M","RACE":"WHITE","ETHNIC":"HISPANIC OR LATINO","WEIGHTBL":80.29,"HEIGHTBL":162.56,"BMIBL":30.4,"RANDFL":"Y","ITTFL":"Y","SAFFL":"Y","EFFFL":"N","COMPLFL":"N","EOSSTT":"DISCONTINUED","DCSREAS":"ADVERSE EVENT","EOSDT":"2012-09-02","DTHFL":null,"DTHDT":null,"DTHDY":null,"DTHCAUS":null},{"STUDYID":"CDISCPILOT01","USUBJID":"01-701-1028","SUBJID":"1028","SITEID":"701","SITEGR1":"900","COUNTRY":"USA","ARM":"Xanomeline High Dose","ARMCD":"Xan_Hi","ACTARM":"Xanomeline High Dose","ACTARMCD":"Xan_Hi","TRT01P":"Xanomeline High Dose","TRT01PN":null,"TRT01A":"Xanomeline High Dose","TRT01AN":null,"TRTP":"Xanomeline High Dose","TRTSDT":"2013-07-19","TRTEDT":"2014-01-14","TRTDURD":180,"AGE":71,"AGEU":"YEARS","AGEGR1":"65-80","AGEGR1N":2,"SEX":"M","RACE":"WHITE","ETHNIC":"NOT HISPANIC OR LATINO","WEIGHTBL":99.34,"HEIGHTBL":177.8,"BMIBL":31.4,"RANDFL":"Y","ITTFL":"Y","SAFFL":"Y","EFFFL":"N","COMPLFL":"Y","EOSSTT":"COMPLETED","DCSREAS":"COMPLETED","EOSDT":"2014-01-14","DTHFL":null,"DTHDT":null,"DTHDY":null,"DTHCAUS":null},{"STUDYID":"CDISCPILOT01","USUBJID":"01-701-1033","SUBJID":"1033","SITEID":"701","SITEGR1":"900","COUNTRY":"USA","ARM":"Xanomeline Low Dose","ARMCD":"Xan_Lo","ACTARM":"Xanomeline Low Dose","ACTARMCD":"Xan_Lo","TRT01P":"Xanomeline Low Dose","TRT01PN":null,"TRT01A":"Xanomeline Low Dose","TRT01AN":null,"TRTP":"Xanomeline Low Dose","TRTSDT":"2014-03-18","TRTEDT":"2014-03-31","TRTDURD":14,"AGE":74,"AGEU":"YEARS","AGEGR1":"65-80","AGEGR1N":2,"SEX":"M","RACE":"WHITE","ETHNIC":"NOT HISPANIC OR LATINO","WEIGHTBL":88.45,"HEIGHTBL":175.26,"BMIBL":28.8,"RANDFL":"Y","ITTFL":"Y","SAFFL":"Y","EFFFL":"N","COMPLFL":"N","EOSSTT":"DISCONTINUED","DCSREAS":"STUDY TERMINATED BY SPONSOR","EOSDT":"2014-04-14","DTHFL":null,"DTHDT":null,"DTHDY":null,"DTHCAUS":null},{"STUDYID":"CDISCPILOT01","USUBJID":"01-701-1034","SUBJID":"1034","SITEID":"701","SITEGR1":"900","COUNTRY":"USA","ARM":"Xanomeline High Dose","ARMCD":"Xan_Hi","ACTARM":"Xanomeline High Dose","ACTARMCD":"Xan_Hi","TRT01P":"Xanomeline High Dose","TRT01PN":null,"TRT01A":"Xanomeline High Dose","TRT01AN":null,"TRTP":"Xanomeline High Dose","TRTSDT":"2014-07-01","TRTEDT":"2014-12-30","TRTDURD":183,"AGE":77,"AGEU":"YEARS","AGEGR1":"65-80","AGEGR1N":2,"SEX":"F","RACE":"WHITE","ETHNIC":"NOT HISPANIC OR LATINO","WEIGHTBL":62.6,"HEIGHTBL":154.94,"BMIBL":26.1,"RANDFL":"Y","ITTFL":"Y","SAFFL":"Y","EFFFL":"N","COMPLFL":"Y","EOSSTT":"COMPLETED","DCSREAS":"COMPLETED","EOSDT":"2014-12-30","DTHFL":null,"DTHDT":null,"DTHDY":null,"DTHCAUS":null},{"STUDYID":"CDISCPILOT01","USUBJID":"01-701-1047","SUBJID":"1047","SITEID":"701","SITEGR1":"900","COUNTRY":"USA","ARM":"Placebo","ARMCD":"Pbo","ACTARM":"Placebo","ACTARMCD":"Pbo","TRT01P":"Placebo","TRT01PN":null,"TRT01A":"Placebo","TRT01AN":null,"TRTP":"Placebo","TRTSDT":"2013-02-12","TRTEDT":"2013-03-09","TRTDURD":26,"AGE":85,"AGEU":"YEARS","AGEGR1":">80","AGEGR1N":3,"SEX":"F","RACE":"WHITE","ETHNIC":"NOT HISPANIC OR LATINO","WEIGHTBL":67.13,"HEIGHTBL":148.59,"BMIBL":30.4,"RANDFL":"Y","ITTFL":"Y","SAFFL":"Y","EFFFL":"N","COMPLFL":"N","EOSSTT":"DISCONTINUED","DCSREAS":"ADVERSE EVENT","EOSDT":"2013-03-29","DTHFL":null,"DTHDT":null,"DTHDY":null,"DTHCAUS":null},{"STUDYID":"CDISCPILOT01","USUBJID":"01-701-1057","SUBJID":"1057","SITEID":"701","SITEGR1":"900","COUNTRY":"USA","ARM":"Screen Failure","ARMCD":"Scrnfail","ACTARM":"Screen Failure","ACTARMCD":"Scrnfail","TRT01P":"Screen Failure","TRT01PN":null,"TRT01A":"Screen Failure","TRT01AN":null,"TRTP":"Screen Failure","TRTSDT":null,"TRTEDT":null,"TRTDURD":null,"AGE":59,"AGEU":"YEARS","AGEGR1":"<65","AGEGR1N":1,"SEX":"F","RACE":"WHITE","ETHNIC":"HISPANIC OR LATINO","WEIGHTBL":null,"HEIGHTBL":null,"BMIBL":null,"RANDFL":"Y","ITTFL":"Y","SAFFL":"N","EFFFL":"N","COMPLFL":"N","EOSSTT":"DISCONTINUED","DCSREAS":"SCREEN FAILURE","EOSDT":"2013-12-20","DTHFL":null,"DTHDT":null,"DTHDY":null,"DTHCAUS":null},{"STUDYID":"CDISCPILOT01","USUBJID":"01-701-1097","SUBJID":"1097","SITEID":"701","SITEGR1":"900","COUNTRY":"USA","ARM":"Xanomeline Low Dose","ARMCD":"Xan_Lo","ACTARM":"Xanomeline Low Dose","ACTARMCD":"Xan_Lo","TRT01P":"Xanomeline Low Dose","TRT01PN":null,"TRT01A":"Xanomeline Low Dose","TRT01AN":null,"TRTP":"Xanomeline Low Dose","TRTSDT":"2014-01-01","TRTEDT":"2014-07-09","TRTDURD":190,"AGE":68,"AGEU":"YEARS","AGEGR1":"65-80","AGEGR1N":2,"SEX":"M","RACE":"WHITE","ETHNIC":"NOT HISPANIC OR LATINO","WEIGHTBL":78.02,"HEIGHTBL":168.91,"BMIBL":27.3,"RANDFL":"Y","ITTFL":"Y","SAFFL":"Y","EFFFL":"N","COMPLFL":"Y","EOSSTT":"COMPLETED","DCSREAS":"COMPLETED","EOSDT":"2014-07-09","DTHFL":null,"DTHDT":null,"DTHDY":null,"DTHCAUS":null},{"STUDYID":"CDISCPILOT01","USUBJID":"01-701-1111","SUBJID":"1111","SITEID":"701","SITEGR1":"900","COUNTRY":"USA","ARM":"Xanomeline Low Dose","ARMCD":"Xan_Lo","ACTARM":"Xanomeline Low Dose","ACTARMCD":"Xan_Lo","TRT01P":"Xanomeline Low Dose","TRT01PN":null,"TRT01A":"Xanomeline Low Dose","TRT01AN":null,"TRTP":"Xanomeline Low Dose","TRTSDT":"2012-09-07","TRTEDT":"2012-09-16","TRTDURD":10,"AGE":81,"AGEU":"YEARS","AGEGR1":">80","AGEGR1N":3,"SEX":"F","RACE":"WHITE","ETHNIC":"NOT HISPANIC OR LATINO","WEIGHTBL":59.88,"HEIGHTBL":158.24,"BMIBL":23.9,"RANDFL":"Y","ITTFL":"Y","SAFFL":"Y","EFFFL":"N","COMPLFL":"N","EOSSTT":"DISCONTINUED","DCSREAS":"ADVERSE EVENT","EOSDT":"2012-09-17","DTHFL":null,"DTHDT":null,"DTHDY":null,"DTHCAUS":null},{"STUDYID":"CDISCPILOT01","USUBJID":"01-701-1115","SUBJID":"1115","SITEID":"701","SITEGR1":"900","COUNTRY":"USA","ARM":"Xanomeline Low Dose","ARMCD":"Xan_Lo","ACTARM":"Xanomeline Low Dose","ACTARMCD":"Xan_Lo","TRT01P":"Xanomeline Low Dose","TRT01PN":null,"TRT01A":"Xanomeline Low Dose","TRT01AN":null,"TRTP":"Xanomeline Low Dose","TRTSDT":"2012-11-30","TRTEDT":"2013-01-23","TRTDURD":55,"AGE":84,"AGEU":"YEARS","AGEGR1":">80","AGEGR1N":3,"SEX":"M","RACE":"WHITE","ETHNIC":"NOT HISPANIC OR LATINO","WEIGHTBL":78.93,"HEIGHTBL":181.61,"BMIBL":23.9,"RANDFL":"Y","ITTFL":"Y","SAFFL":"Y","EFFFL":"N","COMPLFL":"N","EOSSTT":"DISCONTINUED","DCSREAS":"ADVERSE EVENT","EOSDT":"2013-01-23","DTHFL":null,"DTHDT":null,"DTHDY":null,"DTHCAUS":null},{"STUDYID":"CDISCPILOT01","USUBJID":"01-701-1118","SUBJID":"1118","SITEID":"701","SITEGR1":"900","COUNTRY":"USA","ARM":"Placebo","ARMCD":"Pbo","ACTARM":"Placebo","ACTARMCD":"Pbo","TRT01P":"Placebo","TRT01PN":null,"TRT01A":"Placebo","TRT01AN":null,"TRTP":"Placebo","TRTSDT":"2014-03-12","TRTEDT":"2014-09-09","TRTDURD":182,"AGE":52,"AGEU":"YEARS","AGEGR1":"<65","AGEGR1N":1,"SEX":"M","RACE":"WHITE","ETHNIC":"NOT HISPANIC OR LATINO","WEIGHTBL":71.22,"HEIGHTBL":180.34,"BMIBL":21.9,"RANDFL":"Y","ITTFL":"Y","SAFFL":"Y","EFFFL":"N","COMPLFL":"Y","EOSSTT":"COMPLETED","DCSREAS":"COMPLETED","EOSDT":"2014-09-09","DTHFL":null,"DTHDT":null,"DTHDY":null,"DTHCAUS":null},{"STUDYID":"CDISCPILOT01","USUBJID":"01-701-1130","SUBJID":"1130","SITEID":"701","SITEGR1":"900","COUNTRY":"USA","ARM":"Placebo","ARMCD":"Pbo","ACTARM":"Placebo","ACTARMCD":"Pbo","TRT01P":"Placebo","TRT01PN":null,"TRT01A":"Placebo","TRT01AN":null,"TRTP":"Placebo","TRTSDT":"2014-02-15","TRTEDT":"2014-08-16","TRTDURD":183,"AGE":84,"AGEU":"YEARS","AGEGR1":">80","AGEGR1N":3,"SEX":"M","RACE":"WHITE","ETHNIC":"NOT HISPANIC OR LATINO","WEIGHTBL":79.38,"HEIGHTBL":169.67,"BMIBL":27.6,"RANDFL":"Y","ITTFL":"Y","SAFFL":"Y","EFFFL":"N","COMPLFL":"Y","EOSSTT":"COMPLETED","DCSREAS":"COMPLETED","EOSDT":"2014-08-16","DTHFL":null,"DTHDT":null,"DTHDY":null,"DTHCAUS":null},{"STUDYID":"CDISCPILOT01","USUBJID":"01-701-1133","SUBJID":"1133","SITEID":"701","SITEGR1":"900","COUNTRY":"USA","ARM":"Xanomeline High Dose","ARMCD":"Xan_Hi","ACTARM":"Xanomeline High Dose","ACTARMCD":"Xan_Hi","TRT01P":"Xanomeline High Dose","TRT01PN":null,"TRT01A":"Xanomeline High Dose","TRT01AN":null,"TRTP":"Xanomeline High Dose","TRTSDT":"2012-10-28","TRTEDT":"2013-04-28","TRTDURD":183,"AGE":81,"AGEU":"YEARS","AGEGR1":">80","AGEGR1N":3,"SEX":"F","RACE":"WHITE","ETHNIC":"NOT HISPANIC OR LATINO","WEIGHTBL":74.39,"HEIGHTBL":162.56,"BMIBL":28.2,"RANDFL":"Y","ITTFL":"Y","SAFFL":"Y","EFFFL":"N","COMPLFL":"Y","EOSSTT":"COMPLETED","DCSREAS":"COMPLETED","EOSDT":"2013-04-29","DTHFL":null,"DTHDT":null,"DTHDY":null,"DTHCAUS":null},{"STUDYID":"CDISCPILOT01","USUBJID":"01-701-1145","SUBJID":"1145","SITEID":"701","SITEGR1":"900","COUNTRY":"USA","ARM":"Screen Failure","ARMCD":"Scrnfail","ACTARM":"Screen Failure","ACTARMCD":"Scrnfail","TRT01P":"Screen Failure","TRT01PN":null,"TRT01A":"Screen Failure","TRT01AN":null,"TRTP":"Screen Failure","TRTSDT":null,"TRTEDT":null,"TRTDURD":null,"AGE":57,"AGEU":"YEARS","AGEGR1":"<65","AGEGR1N":1,"SEX":"F","RACE":"WHITE","ETHNIC":"NOT HISPANIC OR LATINO","WEIGHTBL":null,"HEIGHTBL":null,"BMIBL":null,"RANDFL":"Y","ITTFL":"Y","SAFFL":"N","EFFFL":"N","COMPLFL":"N","EOSSTT":"DISCONTINUED","DCSREAS":"SCREEN FAILURE","EOSDT":"2013-09-05","DTHFL":null,"DTHDT":null,"DTHDY":null,"DTHCAUS":null},{"STUDYID":"CDISCPILOT01","USUBJID":"01-701-1146","SUBJID":"1146","SITEID":"701","SITEGR1":"900","COUNTRY":"USA","ARM":"Xanomeline High Dose","ARMCD":"Xan_Hi","ACTARM":"Xanomeline High Dose","ACTARMCD":"Xan_Hi","TRT01P":"Xanomeline High Dose","TRT01PN":null,"TRT01A":"Xanomeline High Dose","TRT01AN":null,"TRTP":"Xanomeline High Dose","TRTSDT":"2013-05-20","TRTEDT":"2013-06-26","TRTDURD":38,"AGE":75,"AGEU":"YEARS","AGEGR1":"65-80","AGEGR1N":2,"SEX":"F","RACE":"WHITE","ETHNIC":"NOT HISPANIC OR LATINO","WEIGHTBL":53.98,"HEIGHTBL":147.32,"BMIBL":24.9,"RANDFL":"Y","ITTFL":"Y","SAFFL":"Y","EFFFL":"N","COMPLFL":"N","EOSSTT":"DISCONTINUED","DCSREAS":"ADVERSE EVENT","EOSDT":"2013-06-30","DTHFL":null,"DTHDT":null,"DTHDY":null,"DTHCAUS":null},{"STUDYID":"CDISCPILOT01","USUBJID":"01-701-1148","SUBJID":"1148","SITEID":"701","SITEGR1":"900","COUNTRY":"USA","ARM":"Xanomeline High Dose","ARMCD":"Xan_Hi","ACTARM":"Xanomeline High Dose","ACTARMCD":"Xan_Hi","TRT01P":"Xanomeline High Dose","TRT01PN":null,"TRT01A":"Xanomeline High Dose","TRT01AN":null,"TRTP":"Xanomeline High Dose","TRTSDT":"2013-08-23","TRTEDT":"2014-02-20","TRTDURD":182,"AGE":57,"AGEU":"YEARS","AGEGR1":"<65","AGEGR1N":1,"SEX":"M","RACE":"WHITE","ETHNIC":"NOT HISPANIC OR LATINO","WEIGHTBL":87.09,"HEIGHTBL":175.26,"BMIBL":28.4,"RANDFL":"Y","ITTFL":"Y","SAFFL":"Y","EFFFL":"N","COMPLFL":"Y","EOSSTT":"COMPLETED","DCSREAS":"COMPLETED","EOSDT":"2014-02-20","DTHFL":null,"DTHDT":null,"DTHDY":null,"DTHCAUS":null},{"STUDYID":"CDISCPILOT01","USUBJID":"01-701-1153","SUBJID":"1153","SITEID":"701","SITEGR1":"900","COUNTRY":"USA","ARM":"Placebo","ARMCD":"Pbo","ACTARM":"Placebo","ACTARMCD":"Pbo","TRT01P":"Placebo","TRT01PN":null,"TRT01A":"Placebo","TRT01AN":null,"TRTP":"Placebo","TRTSDT":"2013-09-23","TRTEDT":"2014-03-16","TRTDURD":175,"AGE":79,"AGEU":"YEARS","AGEGR1":"65-80","AGEGR1N":2,"SEX":"F","RACE":"WHITE","ETHNIC":"NOT HISPANIC OR LATINO","WEIGHTBL":58.06,"HEIGHTBL":156.21,"BMIBL":23.8,"RANDFL":"Y","ITTFL":"Y","SAFFL":"Y","EFFFL":"N","COMPLFL":"Y","EOSSTT":"COMPLETED","DCSREAS":"COMPLETED","EOSDT":"2014-04-01","DTHFL":null,"DTHDT":null,"DTHDY":null,"DTHCAUS":null},{"STUDYID":"CDISCPILOT01","USUBJID":"01-701-1162","SUBJID":"1162","SITEID":"701","SITEGR1":"900","COUNTRY":"USA","ARM":"Screen Failure","ARMCD":"Scrnfail","ACTARM":"Screen Failure","ACTARMCD":"Scrnfail","TRT01P":"Screen Failure","TRT01PN":null,"TRT01A":"Screen Failure","TRT01AN":null,"TRTP":"Screen Failure","TRTSDT":null,"TRTEDT":null,"TRTDURD":null,"AGE":82,"AGEU":"YEARS","AGEGR1":">80","AGEGR1N":3,"SEX":"F","RACE":"WHITE","ETHNIC":"NOT HISPANIC OR LATINO","WEIGHTBL":null,"HEIGHTBL":null,"BMIBL":null,"RANDFL":"Y","ITTFL":"Y","SAFFL":"N","EFFFL":"N","COMPLFL":"N","EOSSTT":"DISCONTINUED","DCSREAS":"SCREEN FAILURE","EOSDT":"2013-04-18","DTHFL":null,"DTHDT":null,"DTHDY":null,"DTHCAUS":null},{"STUDYID":"CDISCPILOT01","USUBJID":"01-701-1176","SUBJID":"1176","SITEID":"701","SITEGR1":"900","COUNTRY":"USA","ARM":"Screen Failure","ARMCD":"Scrnfail","ACTARM":"Screen Failure","ACTARMCD":"Scrnfail","TRT01P":"Screen Failure","TRT01PN":null,"TRT01A":"Screen Failure","TRT01AN":null,"TRTP":"Screen Failure","TRTSDT":null,"TRTEDT":null,"TRTDURD":null,"AGE":62,"AGEU":"YEARS","AGEGR1":"<65","AGEGR1N":1,"SEX":"F","RACE":"AMERICAN INDIAN OR ALASKA NATIVE","ETHNIC":"NOT HISPANIC OR LATINO","WEIGHTBL":null,"HEIGHTBL":null,"BMIBL":null,"RANDFL":"Y","ITTFL":"Y","SAFFL":"N","EFFFL":"N","COMPLFL":"N","EOSSTT":"DISCONTINUED","DCSREAS":"SCREEN FAILURE","EOSDT":"2012-09-30","DTHFL":null,"DTHDT":null,"DTHDY":null,"DTHCAUS":null},{"STUDYID":"CDISCPILOT01","USUBJID":"01-701-1180","SUBJID":"1180","SITEID":"701","SITEGR1":"900","COUNTRY":"USA","ARM":"Xanomeline High Dose","ARMCD":"Xan_Hi","ACTARM":"Xanomeline High Dose","ACTARMCD":"Xan_Hi","TRT01P":"Xanomeline High Dose","TRT01PN":null,"TRT01A":"Xanomeline High Dose","TRT01AN":null,"TRTP":"Xanomeline High Dose","TRTSDT":"2013-02-12","TRTEDT":"2013-03-18","TRTDURD":35,"AGE":56,"AGEU":"YEARS","AGEGR1":"<65","AGEGR1N":1,"SEX":"M","RACE":"WHITE","ETHNIC":"NOT HISPANIC OR LATINO","WEIGHTBL":89.81,"HEIGHTBL":180.34,"BMIBL":27.6,"RANDFL":"Y","ITTFL":"Y","SAFFL":"Y","EFFFL":"N","COMPLFL":"N","EOSSTT":"DISCONTINUED","DCSREAS":"ADVERSE EVENT","EOSDT":"2013-03-23","DTHFL":null,"DTHDT":null,"DTHDY":null,"DTHCAUS":null},{"STUDYID":"CDISCPILOT01","USUBJID":"01-701-1181","SUBJID":"1181","SITEID":"701","SITEGR1":"900","COUNTRY":"USA","ARM":"Xanomeline High Dose","ARMCD":"Xan_Hi","ACTARM":"Xanomeline Low Dose","ACTARMCD":"Xan_Lo","TRT01P":"Xanomeline High Dose","TRT01PN":null,"TRT01A":"Xanomeline Low Dose","TRT01AN":null,"TRTP":"Xanomeline High Dose","TRTSDT":"2013-12-05","TRTEDT":"2013-12-09","TRTDURD":5,"AGE":79,"AGEU":"YEARS","AGEGR1":"65-80","AGEGR1N":2,"SEX":"F","RACE":"WHITE","ETHNIC":"NOT HISPANIC OR LATINO","WEIGHTBL":66.68,"HEIGHTBL":154.94,"BMIBL":27.8,"RANDFL":"Y","ITTFL":"Y","SAFFL":"Y","EFFFL":"N","COMPLFL":"N","EOSSTT":"DISCONTINUED","DCSREAS":"ADVERSE EVENT","EOSDT":"2013-12-12","DTHFL":null,"DTHDT":null,"DTHDY":null,"DTHCAUS":null},{"STUDYID":"CDISCPILOT01","USUBJID":"01-701-1188","SUBJID":"1188","SITEID":"701","SITEGR1":"900","COUNTRY":"USA","ARM":"Xanomeline Low Dose","ARMCD":"Xan_Lo","ACTARM":"Xanomeline Low Dose","ACTARMCD":"Xan_Lo","TRT01P":"Xanomeline Low Dose","TRT01PN":null,"TRT01A":"Xanomeline Low Dose","TRT01AN":null,"TRTP":"Xanomeline Low Dose","TRTSDT":"2013-02-15","TRTEDT":"2013-03-24","TRTDURD":38,"AGE":71,"AGEU":"YEARS","AGEGR1":"65-80","AGEGR1N":2,"SEX":"M","RACE":"WHITE","ETHNIC":"NOT HISPANIC OR LATINO","WEIGHTBL":101.15,"HEIGHTBL":177.8,"BMIBL":32,"RANDFL":"Y","ITTFL":"Y","SAFFL":"Y","EFFFL":"N","COMPLFL":"N","EOSSTT":"DISCONTINUED","DCSREAS":"ADVERSE EVENT","EOSDT":"2013-03-25","DTHFL":null,"DTHDT":null,"DTHDY":null,"DTHCAUS":null},{"STUDYID":"CDISCPILOT01","USUBJID":"01-701-1192","SUBJID":"1192","SITEID":"701","SITEGR1":"900","COUNTRY":"USA","ARM":"Xanomeline Low Dose","ARMCD":"Xan_Lo","ACTARM":"Xanomeline Low Dose","ACTARMCD":"Xan_Lo","TRT01P":"Xanomeline Low Dose","TRT01PN":null,"TRT01A":"Xanomeline Low Dose","TRT01AN":null,"TRTP":"Xanomeline Low Dose","TRTSDT":"2012-07-22","TRTEDT":"2013-01-20","TRTDURD":183,"AGE":80,"AGEU":"YEARS","AGEGR1":"65-80","AGEGR1N":2,"SEX":"F","RACE":"WHITE","ETHNIC":"NOT HISPANIC OR LATINO","WEIGHTBL":63.5,"HEIGHTBL":151.13,"BMIBL":27.8,"RANDFL":"Y","ITTFL":"Y","SAFFL":"Y","EFFFL":"N","COMPLFL":"Y","EOSSTT":"COMPLETED","DCSREAS":"COMPLETED","EOSDT":"2013-01-20","DTHFL":null,"DTHDT":null,"DTHDY":null,"DTHCAUS":null},{"STUDYID":"CDISCPILOT01","USUBJID":"01-701-1203","SUBJID":"1203","SITEID":"701","SITEGR1":"900","COUNTRY":"USA","ARM":"Placebo","ARMCD":"Pbo","ACTARM":"Placebo","ACTARMCD":"Pbo","TRT01P":"Placebo","TRT01PN":null,"TRT01A":"Placebo","TRT01AN":null,"TRTP":"Placebo","TRTSDT":"2013-02-02","TRTEDT":"2013-08-03","TRTDURD":183,"AGE":81,"AGEU":"YEARS","AGEGR1":">80","AGEGR1N":3,"SEX":"F","RACE":"BLACK OR AFRICAN AMERICAN","ETHNIC":"NOT HISPANIC OR LATINO","WEIGHTBL":66.23,"HEIGHTBL":160.02,"BMIBL":25.9,"RANDFL":"Y","ITTFL":"Y","SAFFL":"Y","EFFFL":"N","COMPLFL":"Y","EOSSTT":"COMPLETED","DCSREAS":"COMPLETED","EOSDT":"2013-08-03","DTHFL":null,"DTHDT":null,"DTHDY":null,"DTHCAUS":null},{"STUDYID":"CDISCPILOT01","USUBJID":"01-701-1211","SUBJID":"1211","SITEID":"701","SITEGR1":"900","COUNTRY":"USA","ARM":"Xanomeline Low Dose","ARMCD":"Xan_Lo","ACTARM":"Xanomeline Low Dose","ACTARMCD":"Xan_Lo","TRT01P":"Xanomeline Low Dose","TRT01PN":null,"TRT01A":"Xanomeline Low Dose","TRT01AN":null,"TRTP":"Xanomeline Low Dose","TRTSDT":"2012-11-15","TRTEDT":"2013-01-12","TRTDURD":59,"AGE":76,"AGEU":"YEARS","AGEGR1":"65-80","AGEGR1N":2,"SEX":"F","RACE":"WHITE","ETHNIC":"NOT HISPANIC OR LATINO","WEIGHTBL":45.36,"HEIGHTBL":160.02,"BMIBL":17.7,"RANDFL":"Y","ITTFL":"Y","SAFFL":"Y","EFFFL":"N","COMPLFL":"N","EOSSTT":"DISCONTINUED","DCSREAS":"DEATH","EOSDT":"2013-01-14","DTHFL":"Y","DTHDT":"2013-01-14","DTHDY":61,"DTHCAUS":null},{"STUDYID":"CDISCPILOT01","USUBJID":"01-701-1234","SUBJID":"1234","SITEID":"701","SITEGR1":"900","COUNTRY":"USA","ARM":"Placebo","ARMCD":"Pbo","ACTARM":"Placebo","ACTARMCD":"Pbo","TRT01P":"Placebo","TRT01PN":null,"TRT01A":"Placebo","TRT01AN":null,"TRTP":"Placebo","TRTSDT":"2013-03-30","TRTEDT":"2013-09-22","TRTDURD":177,"AGE":69,"AGEU":"YEARS","AGEGR1":"65-80","AGEGR1N":2,"SEX":"M","RACE":"WHITE","ETHNIC":"NOT HISPANIC OR LATINO","WEIGHTBL":77.11,"HEIGHTBL":181.61,"BMIBL":23.4,"RANDFL":"Y","ITTFL":"Y","SAFFL":"Y","EFFFL":"N","COMPLFL":"Y","EOSSTT":"COMPLETED","DCSREAS":"COMPLETED","EOSDT":"2013-09-22","DTHFL":null,"DTHDT":null,"DTHDY":null,"DTHCAUS":null},{"STUDYID":"CDISCPILOT01","USUBJID":"01-701-1239","SUBJID":"1239","SITEID":"701","SITEGR1":"900","COUNTRY":"USA","ARM":"Xanomeline High Dose","ARMCD":"Xan_Hi","ACTARM":"Xanomeline High Dose","ACTARMCD":"Xan_Hi","TRT01P":"Xanomeline High Dose","TRT01PN":null,"TRT01A":"Xanomeline High Dose","TRT01AN":null,"TRTP":"Xanomeline High Dose","TRTSDT":"2014-01-11","TRTEDT":"2014-07-10","TRTDURD":181,"AGE":56,"AGEU":"YEARS","AGEGR1":"<65","AGEGR1N":1,"SEX":"M","RACE":"WHITE","ETHNIC":"HISPANIC OR LATINO","WEIGHTBL":95.94,"HEIGHTBL":168.91,"BMIBL":33.6,"RANDFL":"Y","ITTFL":"Y","SAFFL":"Y","EFFFL":"N","COMPLFL":"Y","EOSSTT":"COMPLETED","DCSREAS":"COMPLETED","EOSDT":"2014-07-11","DTHFL":null,"DTHDT":null,"DTHDY":null,"DTHCAUS":null},{"STUDYID":"CDISCPILOT01","USUBJID":"01-701-1240","SUBJID":"1240","SITEID":"701","SITEGR1":"900","COUNTRY":"USA","ARM":"Screen Failure","ARMCD":"Scrnfail","ACTARM":"Screen Failure","ACTARMCD":"Scrnfail","TRT01P":"Screen Failure","TRT01PN":null,"TRT01A":"Screen Failure","TRT01AN":null,"TRTP":"Screen Failure","TRTSDT":null,"TRTEDT":null,"TRTDURD":null,"AGE":57,"AGEU":"YEARS","AGEGR1":"<65","AGEGR1N":1,"SEX":"F","RACE":"BLACK OR AFRICAN AMERICAN","ETHNIC":"NOT HISPANIC OR LATINO","WEIGHTBL":null,"HEIGHTBL":null,"BMIBL":null,"RANDFL":"Y","ITTFL":"Y","SAFFL":"N","EFFFL":"N","COMPLFL":"N","EOSSTT":"DISCONTINUED","DCSREAS":"SCREEN FAILURE","EOSDT":"2013-09-22","DTHFL":null,"DTHDT":null,"DTHDY":null,"DTHCAUS":null},{"STUDYID":"CDISCPILOT01","USUBJID":"01-701-1275","SUBJID":"1275","SITEID":"701","SITEGR1":"900","COUNTRY":"USA","ARM":"Xanomeline High Dose","ARMCD":"Xan_Hi","ACTARM":"Xanomeline High Dose","ACTARMCD":"Xan_Hi","TRT01P":"Xanomeline High Dose","TRT01PN":null,"TRT01A":"Xanomeline High Dose","TRT01AN":null,"TRTP":"Xanomeline High Dose","TRTSDT":"2014-02-07","TRTEDT":"2014-05-31","TRTDURD":114,"AGE":61,"AGEU":"YEARS","AGEGR1":"<65","AGEGR1N":1,"SEX":"M","RACE":"AMERICAN INDIAN OR ALASKA NATIVE","ETHNIC":"NOT HISPANIC OR LATINO","WEIGHTBL":68.95,"HEIGHTBL":167.64,"BMIBL":24.5,"RANDFL":"Y","ITTFL":"Y","SAFFL":"Y","EFFFL":"N","COMPLFL":"N","EOSSTT":"DISCONTINUED","DCSREAS":"WITHDRAWAL BY SUBJECT","EOSDT":"2014-06-14","DTHFL":null,"DTHDT":null,"DTHDY":null,"DTHCAUS":null},{"STUDYID":"CDISCPILOT01","USUBJID":"01-701-1287","SUBJID":"1287","SITEID":"701","SITEGR1":"900","COUNTRY":"USA","ARM":"Xanomeline High Dose","ARMCD":"Xan_Hi","ACTARM":"Xanomeline High Dose","ACTARMCD":"Xan_Hi","TRT01P":"Xanomeline High Dose","TRT01PN":null,"TRT01A":"Xanomeline High Dose","TRT01AN":null,"TRTP":"Xanomeline High Dose","TRTSDT":"2014-01-25","TRTEDT":"2014-07-26","TRTDURD":183,"AGE":56,"AGEU":"YEARS","AGEGR1":"<65","AGEGR1N":1,"SEX":"F","RACE":"WHITE","ETHNIC":"HISPANIC OR LATINO","WEIGHTBL":56.25,"HEIGHTBL":154.94,"BMIBL":23.4,"RANDFL":"Y","ITTFL":"Y","SAFFL":"Y","EFFFL":"N","COMPLFL":"Y","EOSSTT":"COMPLETED","DCSREAS":"COMPLETED","EOSDT":"2014-07-26","DTHFL":null,"DTHDT":null,"DTHDY":null,"DTHCAUS":null},{"STUDYID":"CDISCPILOT01","USUBJID":"01-701-1294","SUBJID":"1294","SITEID":"701","SITEGR1":"900","COUNTRY":"USA","ARM":"Xanomeline Low Dose","ARMCD":"Xan_Lo","ACTARM":"Xanomeline Low Dose","ACTARMCD":"Xan_Lo","TRT01P":"Xanomeline Low Dose","TRT01PN":null,"TRT01A":"Xanomeline Low Dose","TRT01AN":null,"TRTP":"Xanomeline Low Dose","TRTSDT":"2013-03-24","TRTEDT":"2013-06-14","TRTDURD":83,"AGE":67,"AGEU":"YEARS","AGEGR1":"65-80","AGEGR1N":2,"SEX":"M","RACE":"WHITE","ETHNIC":"NOT HISPANIC OR LATINO","WEIGHTBL":78.47,"HEIGHTBL":170.18,"BMIBL":27.1,"RANDFL":"Y","ITTFL":"Y","SAFFL":"Y","EFFFL":"N","COMPLFL":"N","EOSSTT":"DISCONTINUED","DCSREAS":"ADVERSE EVENT","EOSDT":"2013-06-14","DTHFL":null,"DTHDT":null,"DTHDY":null,"DTHCAUS":null},{"STUDYID":"CDISCPILOT01","USUBJID":"01-701-1302","SUBJID":"1302","SITEID":"701","SITEGR1":"900","COUNTRY":"USA","ARM":"Xanomeline High Dose","ARMCD":"Xan_Hi","ACTARM":"Xanomeline High Dose","ACTARMCD":"Xan_Hi","TRT01P":"Xanomeline High Dose","TRT01PN":null,"TRT01A":"Xanomeline High Dose","TRT01AN":null,"TRTP":"Xanomeline High Dose","TRTSDT":"2013-08-29","TRTEDT":"2013-11-05","TRTDURD":69,"AGE":61,"AGEU":"YEARS","AGEGR1":"<65","AGEGR1N":1,"SEX":"M","RACE":"WHITE","ETHNIC":"NOT HISPANIC OR LATINO","WEIGHTBL":82.1,"HEIGHTBL":177.8,"BMIBL":26,"RANDFL":"Y","ITTFL":"Y","SAFFL":"Y","EFFFL":"N","COMPLFL":"N","EOSSTT":"DISCONTINUED","DCSREAS":"ADVERSE EVENT","EOSDT":"2013-11-05","DTHFL":null,"DTHDT":null,"DTHDY":null,"DTHCAUS":null},{"STUDYID":"CDISCPILOT01","USUBJID":"01-701-1307","SUBJID":"1307","SITEID":"701","SITEGR1":"900","COUNTRY":"USA","ARM":"Screen Failure","ARMCD":"Scrnfail","ACTARM":"Screen Failure","ACTARMCD":"Scrnfail","TRT01P":"Screen Failure","TRT01PN":null,"TRT01A":"Screen Failure","TRT01AN":null,"TRTP":"Screen Failure","TRTSDT":null,"TRTEDT":null,"TRTDURD":null,"AGE":80,"AGEU":"YEARS","AGEGR1":"65-80","AGEGR1N":2,"SEX":"F","RACE":"WHITE","ETHNIC":"NOT HISPANIC OR LATINO","WEIGHTBL":null,"HEIGHTBL":null,"BMIBL":null,"RANDFL":"Y","ITTFL":"Y","SAFFL":"N","EFFFL":"N","COMPLFL":"N","EOSSTT":"DISCONTINUED","DCSREAS":"SCREEN FAILURE","EOSDT":"2013-12-08","DTHFL":null,"DTHDT":null,"DTHDY":null,"DTHCAUS":null},{"STUDYID":"CDISCPILOT01","USUBJID":"01-701-1317","SUBJID":"1317","SITEID":"701","SITEGR1":"900","COUNTRY":"USA","ARM":"Xanomeline Low Dose","ARMCD":"Xan_Lo","ACTARM":"Xanomeline Low Dose","ACTARMCD":"Xan_Lo","TRT01P":"Xanomeline Low Dose","TRT01PN":null,"TRT01A":"Xanomeline Low Dose","TRT01AN":null,"TRTP":"Xanomeline Low Dose","TRTSDT":"2014-05-22","TRTEDT":"2014-11-20","TRTDURD":183,"AGE":68,"AGEU":"YEARS","AGEGR1":"65-80","AGEGR1N":2,"SEX":"M","RACE":"WHITE","ETHNIC":"NOT HISPANIC OR LATINO","WEIGHTBL":66.68,"HEIGHTBL":176.53,"BMIBL":21.4,"RANDFL":"Y","ITTFL":"Y","SAFFL":"Y","EFFFL":"N","COMPLFL":"Y","EOSSTT":"COMPLETED","DCSREAS":"COMPLETED","EOSDT":"2014-11-20","DTHFL":null,"DTHDT":null,"DTHDY":null,"DTHCAUS":null},{"STUDYID":"CDISCPILOT01","USUBJID":"01-701-1324","SUBJID":"1324","SITEID":"701","SITEGR1":"900","COUNTRY":"USA","ARM":"Xanomeline Low Dose","ARMCD":"Xan_Lo","ACTARM":"Xanomeline Low Dose","ACTARMCD":"Xan_Lo","TRT01P":"Xanomeline Low Dose","TRT01PN":null,"TRT01A":"Xanomeline Low Dose","TRT01AN":null,"TRTP":"Xanomeline Low Dose","TRTSDT":"2012-10-02","TRTEDT":"2013-04-02","TRTDURD":183,"AGE":79,"AGEU":"YEARS","AGEGR1":"65-80","AGEGR1N":2,"SEX":"M","RACE":"WHITE","ETHNIC":"NOT HISPANIC OR LATINO","WEIGHTBL":77.11,"HEIGHTBL":166.37,"BMIBL":27.9,"RANDFL":"Y","ITTFL":"Y","SAFFL":"Y","EFFFL":"N","COMPLFL":"Y","EOSSTT":"COMPLETED","DCSREAS":"COMPLETED","EOSDT":"2013-04-02","DTHFL":null,"DTHDT":null,"DTHDY":null,"DTHCAUS":null},{"STUDYID":"CDISCPILOT01","USUBJID":"01-701-1341","SUBJID":"1341","SITEID":"701","SITEGR1":"900","COUNTRY":"USA","ARM":"Xanomeline Low Dose","ARMCD":"Xan_Lo","ACTARM":"Xanomeline Low Dose","ACTARMCD":"Xan_Lo","TRT01P":"Xanomeline Low Dose","TRT01PN":null,"TRT01A":"Xanomeline Low Dose","TRT01AN":null,"TRTP":"Xanomeline Low Dose","TRTSDT":"2013-01-05","TRTEDT":"2013-01-26","TRTDURD":22,"AGE":51,"AGEU":"YEARS","AGEGR1":"<65","AGEGR1N":1,"SEX":"M","RACE":"WHITE","ETHNIC":"NOT HISPANIC OR LATINO","WEIGHTBL":70.76,"HEIGHTBL":157.48,"BMIBL":28.5,"RANDFL":"Y","ITTFL":"Y","SAFFL":"Y","EFFFL":"N","COMPLFL":"N","EOSSTT":"DISCONTINUED","DCSREAS":"ADVERSE EVENT","EOSDT":"2013-02-07","DTHFL":null,"DTHDT":null,"DTHDY":null,"DTHCAUS":null},{"STUDYID":"CDISCPILOT01","USUBJID":"01-701-1345","SUBJID":"1345","SITEID":"701","SITEGR1":"900","COUNTRY":"USA","ARM":"Placebo","ARMCD":"Pbo","ACTARM":"Placebo","ACTARMCD":"Pbo","TRT01P":"Placebo","TRT01PN":null,"TRT01A":"Placebo","TRT01AN":null,"TRTP":"Placebo","TRTSDT":"2013-10-08","TRTEDT":"2014-03-18","TRTDURD":162,"AGE":63,"AGEU":"YEARS","AGEGR1":"<65","AGEGR1N":1,"SEX":"F","RACE":"WHITE","ETHNIC":"NOT HISPANIC OR LATINO","WEIGHTBL":56.25,"HEIGHTBL":173.99,"BMIBL":18.6,"RANDFL":"Y","ITTFL":"Y","SAFFL":"Y","EFFFL":"N","COMPLFL":"N","EOSSTT":"DISCONTINUED","DCSREAS":"STUDY TERMINATED BY SPONSOR","EOSDT":"2014-03-18","DTHFL":null,"DTHDT":null,"DTHDY":null,"DTHCAUS":null},{"STUDYID":"CDISCPILOT01","USUBJID":"01-701-1356","SUBJID":"1356","SITEID":"701","SITEGR1":"900","COUNTRY":"USA","ARM":"Screen Failure","ARMCD":"Scrnfail","ACTARM":"Screen Failure","ACTARMCD":"Scrnfail","TRT01P":"Screen Failure","TRT01PN":null,"TRT01A":"Screen Failure","TRT01AN":null,"TRTP":"Screen Failure","TRTSDT":null,"TRTEDT":null,"TRTDURD":null,"AGE":54,"AGEU":"YEARS","AGEGR1":"<65","AGEGR1N":1,"SEX":"F","RACE":"WHITE","ETHNIC":"HISPANIC OR LATINO","WEIGHTBL":null,"HEIGHTBL":null,"BMIBL":null,"RANDFL":"Y","ITTFL":"Y","SAFFL":"N","EFFFL":"N","COMPLFL":"N","EOSSTT":"DISCONTINUED","DCSREAS":"SCREEN FAILURE","EOSDT":"2014-04-01","DTHFL":null,"DTHDT":null,"DTHDY":null,"DTHCAUS":null},{"STUDYID":"CDISCPILOT01","USUBJID":"01-701-1360","SUBJID":"1360","SITEID":"701","SITEGR1":"900","COUNTRY":"USA","ARM":"Xanomeline High Dose","ARMCD":"Xan_Hi","ACTARM":"Xanomeline Low Dose","ACTARMCD":"Xan_Lo","TRT01P":"Xanomeline High Dose","TRT01PN":null,"TRT01A":"Xanomeline Low Dose","TRT01AN":null,"TRTP":"Xanomeline High Dose","TRTSDT":"2013-07-31","TRTEDT":"2013-08-05","TRTDURD":6,"AGE":67,"AGEU":"YEARS","AGEGR1":"65-80","AGEGR1N":2,"SEX":"M","RACE":"WHITE","ETHNIC":"NOT HISPANIC OR LATINO","WEIGHTBL":80.29,"HEIGHTBL":166.37,"BMIBL":29,"RANDFL":"Y","ITTFL":"Y","SAFFL":"Y","EFFFL":"N","COMPLFL":"N","EOSSTT":"DISCONTINUED","DCSREAS":"PHYSICIAN DECISION","EOSDT":"2013-08-14","DTHFL":null,"DTHDT":null,"DTHDY":null,"DTHCAUS":null},{"STUDYID":"CDISCPILOT01","USUBJID":"01-701-1363","SUBJID":"1363","SITEID":"701","SITEGR1":"900","COUNTRY":"USA","ARM":"Placebo","ARMCD":"Pbo","ACTARM":"Placebo","ACTARMCD":"Pbo","TRT01P":"Placebo","TRT01PN":null,"TRT01A":"Placebo","TRT01AN":null,"TRTP":"Placebo","TRTSDT":"2013-05-30","TRTEDT":"2013-11-27","TRTDURD":182,"AGE":81,"AGEU":"YEARS","AGEGR1":">80","AGEGR1N":3,"SEX":"F","RACE":"BLACK OR AFRICAN AMERICAN","ETHNIC":"NOT HISPANIC OR LATINO","WEIGHTBL":64.86,"HEIGHTBL":161.29,"BMIBL":24.9,"RANDFL":"Y","ITTFL":"Y","SAFFL":"Y","EFFFL":"N","COMPLFL":"Y","EOSSTT":"COMPLETED","DCSREAS":"COMPLETED","EOSDT":"2013-11-27","DTHFL":null,"DTHDT":null,"DTHDY":null,"DTHCAUS":null},{"STUDYID":"CDISCPILOT01","USUBJID":"01-701-1369","SUBJID":"1369","SITEID":"701","SITEGR1":"900","COUNTRY":"USA","ARM":"Screen Failure","ARMCD":"Scrnfail","ACTARM":"Screen Failure","ACTARMCD":"Scrnfail","TRT01P":"Screen Failure","TRT01PN":null,"TRT01A":"Screen Failure","TRT01AN":null,"TRTP":"Screen Failure","TRTSDT":null,"TRTEDT":null,"TRTDURD":null,"AGE":74,"AGEU":"YEARS","AGEGR1":"65-80","AGEGR1N":2,"SEX":"M","RACE":"WHITE","ETHNIC":"NOT HISPANIC OR LATINO","WEIGHTBL":null,"HEIGHTBL":null,"BMIBL":null,"RANDFL":"Y","ITTFL":"Y","SAFFL":"N","EFFFL":"N","COMPLFL":"N","EOSSTT":"DISCONTINUED","DCSREAS":"SCREEN FAILURE","EOSDT":"2013-09-18","DTHFL":null,"DTHDT":null,"DTHDY":null,"DTHCAUS":null},{"STUDYID":"CDISCPILOT01","USUBJID":"01-701-1383","SUBJID":"1383","SITEID":"701","SITEGR1":"900","COUNTRY":"USA","ARM":"Xanomeline High Dose","ARMCD":"Xan_Hi","ACTARM":"Xanomeline High Dose","ACTARMCD":"Xan_Hi","TRT01P":"Xanomeline High Dose","TRT01PN":null,"TRT01A":"Xanomeline High Dose","TRT01AN":null,"TRTP":"Xanomeline High Dose","TRTSDT":"2013-02-04","TRTEDT":"2013-08-06","TRTDURD":184,"AGE":72,"AGEU":"YEARS","AGEGR1":"65-80","AGEGR1N":2,"SEX":"F","RACE":"WHITE","ETHNIC":"NOT HISPANIC OR LATINO","WEIGHTBL":84.82,"HEIGHTBL":163.83,"BMIBL":31.6,"RANDFL":"Y","ITTFL":"Y","SAFFL":"Y","EFFFL":"N","COMPLFL":"Y","EOSSTT":"COMPLETED","DCSREAS":"COMPLETED","EOSDT":"2013-08-06","DTHFL":null,"DTHDT":null,"DTHDY":null,"DTHCAUS":null},{"STUDYID":"CDISCPILOT01","USUBJID":"01-701-1386","SUBJID":"1386","SITEID":"701","SITEGR1":"900","COUNTRY":"USA","ARM":"Screen Failure","ARMCD":"Scrnfail","ACTARM":"Screen Failure","ACTARMCD":"Scrnfail","TRT01P":"Screen Failure","TRT01PN":null,"TRT01A":"Screen Failure","TRT01AN":null,"TRTP":"Screen Failure","TRTSDT":null,"TRTEDT":null,"TRTDURD":null,"AGE":71,"AGEU":"YEARS","AGEGR1":"65-80","AGEGR1N":2,"SEX":"M","RACE":"WHITE","ETHNIC":"NOT HISPANIC OR LATINO","WEIGHTBL":null,"HEIGHTBL":null,"BMIBL":null,"RANDFL":"Y","ITTFL":"Y","SAFFL":"N","EFFFL":"N","COMPLFL":"N","EOSSTT":"DISCONTINUED","DCSREAS":"SCREEN FAILURE","EOSDT":"2013-12-28","DTHFL":null,"DTHDT":null,"DTHDY":null,"DTHCAUS":null},{"STUDYID":"CDISCPILOT01","USUBJID":"01-701-1387","SUBJID":"1387","SITEID":"701","SITEGR1":"900","COUNTRY":"USA","ARM":"Placebo","ARMCD":"Pbo","ACTARM":"Placebo","ACTARMCD":"Pbo","TRT01P":"Placebo","TRT01PN":null,"TRT01A":"Placebo","TRT01AN":null,"TRTP":"Placebo","TRTSDT":"2014-03-12","TRTEDT":"2014-03-25","TRTDURD":14,"AGE":87,"AGEU":"YEARS","AGEGR1":">80","AGEGR1N":3,"SEX":"F","RACE":"WHITE","ETHNIC":"NOT HISPANIC OR LATINO","WEIGHTBL":59.42,"HEIGHTBL":162.56,"BMIBL":22.5,"RANDFL":"Y","ITTFL":"Y","SAFFL":"Y","EFFFL":"N","COMPLFL":"N","EOSSTT":"DISCONTINUED","DCSREAS":"PROTOCOL VIOLATION","EOSDT":"2014-03-25","DTHFL":null,"DTHDT":null,"DTHDY":null,"DTHCAUS":null},{"STUDYID":"CDISCPILOT01","USUBJID":"01-701-1392","SUBJID":"1392","SITEID":"701","SITEGR1":"900","COUNTRY":"USA","ARM":"Placebo","ARMCD":"Pbo","ACTARM":"Placebo","ACTARMCD":"Pbo","TRT01P":"Placebo","TRT01PN":null,"TRT01A":"Placebo","TRT01AN":null,"TRTP":"Placebo","TRTSDT":"2012-10-28","TRTEDT":"2013-04-28","TRTDURD":183,"AGE":78,"AGEU":"YEARS","AGEGR1":"65-80","AGEGR1N":2,"SEX":"M","RACE":"WHITE","ETHNIC":"NOT HISPANIC OR LATINO","WEIGHTBL":81.19,"HEIGHTBL":167.64,"BMIBL":28.9,"RANDFL":"Y","ITTFL":"Y","SAFFL":"Y","EFFFL":"N","COMPLFL":"Y","EOSSTT":"COMPLETED","DCSREAS":"COMPLETED","EOSDT":"2013-04-28","DTHFL":null,"DTHDT":null,"DTHDY":null,"DTHCAUS":null},{"STUDYID":"CDISCPILOT01","USUBJID":"01-701-1411","SUBJID":"1411","SITEID":"701","SITEGR1":"900","COUNTRY":"USA","ARM":"Screen Failure","ARMCD":"Scrnfail","ACTARM":"Screen Failure","ACTARMCD":"Scrnfail","TRT01P":"Screen Failure","TRT01PN":null,"TRT01A":"Screen Failure","TRT01AN":null,"TRTP":"Screen Failure","TRTSDT":null,"TRTEDT":null,"TRTDURD":null,"AGE":76,"AGEU":"YEARS","AGEGR1":"65-80","AGEGR1N":2,"SEX":"M","RACE":"BLACK OR AFRICAN AMERICAN","ETHNIC":"NOT HISPANIC OR LATINO","WEIGHTBL":null,"HEIGHTBL":null,"BMIBL":null,"RANDFL":"Y","ITTFL":"Y","SAFFL":"N","EFFFL":"N","COMPLFL":"N","EOSSTT":"DISCONTINUED","DCSREAS":"SCREEN FAILURE","EOSDT":"2012-11-14","DTHFL":null,"DTHDT":null,"DTHDY":null,"DTHCAUS":null},{"STUDYID":"CDISCPILOT01","USUBJID":"01-701-1415","SUBJID":"1415","SITEID":"701","SITEGR1":"900","COUNTRY":"USA","ARM":"Placebo","ARMCD":"Pbo","ACTARM":"Placebo","ACTARMCD":"Pbo","TRT01P":"Placebo","TRT01PN":null,"TRT01A":"Placebo","TRT01AN":null,"TRTP":"Placebo","TRTSDT":"2013-09-23","TRTEDT":"2014-03-24","TRTDURD":183,"AGE":85,"AGEU":"YEARS","AGEGR1":">80","AGEGR1N":3,"SEX":"M","RACE":"WHITE","ETHNIC":"NOT HISPANIC OR LATINO","WEIGHTBL":76.66,"HEIGHTBL":175.26,"BMIBL":25,"RANDFL":"Y","ITTFL":"Y","SAFFL":"Y","EFFFL":"N","COMPLFL":"Y","EOSSTT":"COMPLETED","DCSREAS":"COMPLETED","EOSDT":"2014-03-24","DTHFL":null,"DTHDT":null,"DTHDY":null,"DTHCAUS":null},{"STUDYID":"CDISCPILOT01","USUBJID":"01-701-1429","SUBJID":"1429","SITEID":"701","SITEGR1":"900","COUNTRY":"USA","ARM":"Xanomeline Low Dose","ARMCD":"Xan_Lo","ACTARM":"Xanomeline Low Dose","ACTARMCD":"Xan_Lo","TRT01P":"Xanomeline Low Dose","TRT01PN":null,"TRT01A":"Xanomeline Low Dose","TRT01AN":null,"TRTP":"Xanomeline Low Dose","TRTSDT":"2013-03-19","TRTEDT":"2013-04-30","TRTDURD":43,"AGE":84,"AGEU":"YEARS","AGEGR1":">80","AGEGR1N":3,"SEX":"F","RACE":"WHITE","ETHNIC":"NOT HISPANIC OR LATINO","WEIGHTBL":56.7,"HEIGHTBL":148.59,"BMIBL":25.7,"RANDFL":"Y","ITTFL":"Y","SAFFL":"Y","EFFFL":"N","COMPLFL":"N","EOSSTT":"DISCONTINUED","DCSREAS":"WITHDRAWAL BY SUBJECT","EOSDT":"2013-04-30","DTHFL":null,"DTHDT":null,"DTHDY":null,"DTHCAUS":null},{"STUDYID":"CDISCPILOT01","USUBJID":"01-701-1440","SUBJID":"1440","SITEID":"701","SITEGR1":"900","COUNTRY":"USA","ARM":"Placebo","ARMCD":"Pbo","ACTARM":"Placebo","ACTARMCD":"Pbo","TRT01P":"Placebo","TRT01PN":null,"TRT01A":"Placebo","TRT01AN":null,"TRTP":"Placebo","TRTSDT":"2013-08-08","TRTEDT":"2014-02-05","TRTDURD":182,"AGE":70,"AGEU":"YEARS","AGEGR1":"65-80","AGEGR1N":2,"SEX":"M","RACE":"WHITE","ETHNIC":"NOT HISPANIC OR LATINO","WEIGHTBL":49.44,"HEIGHTBL":156.21,"BMIBL":20.3,"RANDFL":"Y","ITTFL":"Y","SAFFL":"Y","EFFFL":"N","COMPLFL":"Y","EOSSTT":"COMPLETED","DCSREAS":"COMPLETED","EOSDT":"2014-02-05","DTHFL":null,"DTHDT":null,"DTHDY":null,"DTHCAUS":null},{"STUDYID":"CDISCPILOT01","USUBJID":"01-701-1442","SUBJID":"1442","SITEID":"701","SITEGR1":"900","COUNTRY":"USA","ARM":"Xanomeline Low Dose","ARMCD":"Xan_Lo","ACTARM":"Xanomeline Low Dose","ACTARMCD":"Xan_Lo","TRT01P":"Xanomeline Low Dose","TRT01PN":null,"TRT01A":"Xanomeline Low Dose","TRT01AN":null,"TRTP":"Xanomeline Low Dose","TRTSDT":"2013-10-26","TRTEDT":"2014-04-26","TRTDURD":183,"AGE":57,"AGEU":"YEARS","AGEGR1":"<65","AGEGR1N":1,"SEX":"F","RACE":"BLACK OR AFRICAN AMERICAN","ETHNIC":"NOT HISPANIC OR LATINO","WEIGHTBL":106.14,"HEIGHTBL":162.56,"BMIBL":40.2,"RANDFL":"Y","ITTFL":"Y","SAFFL":"Y","EFFFL":"N","COMPLFL":"Y","EOSSTT":"COMPLETED","DCSREAS":"COMPLETED","EOSDT":"2014-04-26","DTHFL":null,"DTHDT":null,"DTHDY":null,"DTHCAUS":null},{"STUDYID":"CDISCPILOT01","USUBJID":"01-701-1444","SUBJID":"1444","SITEID":"701","SITEGR1":"900","COUNTRY":"USA","ARM":"Xanomeline High Dose","ARMCD":"Xan_Hi","ACTARM":"Xanomeline High Dose","ACTARMCD":"Xan_Hi","TRT01P":"Xanomeline High Dose","TRT01PN":null,"TRT01A":"Xanomeline High Dose","TRT01AN":null,"TRTP":"Xanomeline High Dose","TRTSDT":"2013-01-05","TRTEDT":"2013-02-12","TRTDURD":39,"AGE":63,"AGEU":"YEARS","AGEGR1":"<65","AGEGR1N":1,"SEX":"M","RACE":"WHITE","ETHNIC":"HISPANIC OR LATINO","WEIGHTBL":101.61,"HEIGHTBL":171.45,"BMIBL":34.6,"RANDFL":"Y","ITTFL":"Y","SAFFL":"Y","EFFFL":"N","COMPLFL":"N","EOSSTT":"DISCONTINUED","DCSREAS":"ADVERSE EVENT","EOSDT":"2013-02-13","DTHFL":null,"DTHDT":null,"DTHDY":null,"DTHCAUS":null},{"STUDYID":"CDISCPILOT01","USUBJID":"01-702-1082","SUBJID":"1082","SITEID":"702","SITEGR1":"900","COUNTRY":"USA","ARM":"Xanomeline Low Dose","ARMCD":"Xan_Lo","ACTARM":"Xanomeline Low Dose","ACTARMCD":"Xan_Lo","TRT01P":"Xanomeline Low Dose","TRT01PN":null,"TRT01A":"Xanomeline Low Dose","TRT01AN":null,"TRTP":"Xanomeline Low Dose","TRTSDT":"2013-07-26","TRTEDT":"2013-10-13","TRTDURD":80,"AGE":84,"AGEU":"YEARS","AGEGR1":">80","AGEGR1N":3,"SEX":"F","RACE":"WHITE","ETHNIC":"NOT HISPANIC OR LATINO","WEIGHTBL":54.43,"HEIGHTBL":154.94,"BMIBL":22.7,"RANDFL":"Y","ITTFL":"Y","SAFFL":"Y","EFFFL":"N","COMPLFL":"N","EOSSTT":"DISCONTINUED","DCSREAS":"WITHDRAWAL BY SUBJECT","EOSDT":"2013-11-17","DTHFL":null,"DTHDT":null,"DTHDY":null,"DTHCAUS":null},{"STUDYID":"CDISCPILOT01","USUBJID":"01-703-1042","SUBJID":"1042","SITEID":"703","SITEGR1":"900","COUNTRY":"USA","ARM":"Placebo","ARMCD":"Pbo","ACTARM":"Placebo","ACTARMCD":"Pbo","TRT01P":"Placebo","TRT01PN":null,"TRT01A":"Placebo","TRT01AN":null,"TRTP":"Placebo","TRTSDT":"2013-03-02","TRTEDT":"2013-08-31","TRTDURD":183,"AGE":64,"AGEU":"YEARS","AGEGR1":"<65","AGEGR1N":1,"SEX":"M","RACE":"WHITE","ETHNIC":"NOT HISPANIC OR LATINO","WEIGHTBL":74.39,"HEIGHTBL":177.8,"BMIBL":23.5,"RANDFL":"Y","ITTFL":"Y","SAFFL":"Y","EFFFL":"N","COMPLFL":"Y","EOSSTT":"COMPLETED","DCSREAS":"COMPLETED","EOSDT":"2013-08-31","DTHFL":null,"DTHDT":null,"DTHDY":null,"DTHCAUS":null},{"STUDYID":"CDISCPILOT01","USUBJID":"01-703-1076","SUBJID":"1076","SITEID":"703","SITEGR1":"900","COUNTRY":"USA","ARM":"Xanomeline High Dose","ARMCD":"Xan_Hi","ACTARM":"Xanomeline High Dose","ACTARMCD":"Xan_Hi","TRT01P":"Xanomeline High Dose","TRT01PN":null,"TRT01A":"Xanomeline High Dose","TRT01AN":null,"TRTP":"Xanomeline High Dose","TRTSDT":"2013-10-25","TRTEDT":"2013-12-24","TRTDURD":61,"AGE":69,"AGEU":"YEARS","AGEGR1":"65-80","AGEGR1N":2,"SEX":"M","RACE":"WHITE","ETHNIC":"NOT HISPANIC OR LATINO","WEIGHTBL":87.09,"HEIGHTBL":165.1,"BMIBL":32,"RANDFL":"Y","ITTFL":"Y","SAFFL":"Y","EFFFL":"N","COMPLFL":"N","EOSSTT":"DISCONTINUED","DCSREAS":"ADVERSE EVENT","EOSDT":"2013-12-24","DTHFL":null,"DTHDT":null,"DTHDY":null,"DTHCAUS":null},{"STUDYID":"CDISCPILOT01","USUBJID":"01-703-1086","SUBJID":"1086","SITEID":"703","SITEGR1":"900","COUNTRY":"USA","ARM":"Xanomeline Low Dose","ARMCD":"Xan_Lo","ACTARM":"Xanomeline Low Dose","ACTARMCD":"Xan_Lo","TRT01P":"Xanomeline Low Dose","TRT01PN":null,"TRT01A":"Xanomeline Low Dose","TRT01AN":null,"TRTP":"Xanomeline Low Dose","TRTSDT":"2012-09-02","TRTEDT":"2012-12-04","TRTDURD":94,"AGE":71,"AGEU":"YEARS","AGEGR1":"65-80","AGEGR1N":2,"SEX":"M","RACE":"WHITE","ETHNIC":"NOT HISPANIC OR LATINO","WEIGHTBL":95.71,"HEIGHTBL":195.58,"BMIBL":25,"RANDFL":"Y","ITTFL":"Y","SAFFL":"Y","EFFFL":"N","COMPLFL":"N","EOSSTT":"DISCONTINUED","DCSREAS":"ADVERSE EVENT","EOSDT":"2012-12-24","DTHFL":null,"DTHDT":null,"DTHDY":null,"DTHCAUS":null},{"STUDYID":"CDISCPILOT01","USUBJID":"01-703-1096","SUBJID":"1096","SITEID":"703","SITEGR1":"900","COUNTRY":"USA","ARM":"Placebo","ARMCD":"Pbo","ACTARM":"Placebo","ACTARMCD":"Pbo","TRT01P":"Placebo","TRT01PN":null,"TRT01A":"Placebo","TRT01AN":null,"TRTP":"Placebo","TRTSDT":"2013-01-25","TRTEDT":"2013-03-16","TRTDURD":51,"AGE":81,"AGEU":"YEARS","AGEGR1":">80","AGEGR1N":3,"SEX":"F","RACE":"WHITE","ETHNIC":"NOT HISPANIC OR LATINO","WEIGHTBL":81.19,"HEIGHTBL":160.02,"BMIBL":31.7,"RANDFL":"Y","ITTFL":"Y","SAFFL":"Y","EFFFL":"N","COMPLFL":"N","EOSSTT":"DISCONTINUED","DCSREAS":"LOST TO FOLLOW-UP","EOSDT":"2013-03-29","DTHFL":null,"DTHDT":null,"DTHDY":null,"DTHCAUS":null},{"STUDYID":"CDISCPILOT01","USUBJID":"01-703-1100","SUBJID":"1100","SITEID":"703","SITEGR1":"900","COUNTRY":"USA","ARM":"Placebo","ARMCD":"Pbo","ACTARM":"Placebo","ACTARMCD":"Pbo","TRT01P":"Placebo","TRT01PN":null,"TRT01A":"Placebo","TRT01AN":null,"TRTP":"Placebo","TRTSDT":"2013-03-13","TRTEDT":"2013-09-14","TRTDURD":186,"AGE":84,"AGEU":"YEARS","AGEGR1":">80","AGEGR1N":3,"SEX":"F","RACE":"WHITE","ETHNIC":"NOT HISPANIC OR LATINO","WEIGHTBL":61.24,"HEIGHTBL":167.64,"BMIBL":21.8,"RANDFL":"Y","ITTFL":"Y","SAFFL":"Y","EFFFL":"N","COMPLFL":"Y","EOSSTT":"COMPLETED","DCSREAS":"COMPLETED","EOSDT":"2013-09-14","DTHFL":null,"DTHDT":null,"DTHDY":null,"DTHCAUS":null},{"STUDYID":"CDISCPILOT01","USUBJID":"01-703-1119","SUBJID":"1119","SITEID":"703","SITEGR1":"900","COUNTRY":"USA","ARM":"Xanomeline Low Dose","ARMCD":"Xan_Lo","ACTARM":"Xanomeline Low Dose","ACTARMCD":"Xan_Lo","TRT01P":"Xanomeline Low Dose","TRT01PN":null,"TRT01A":"Xanomeline Low Dose","TRT01AN":null,"TRTP":"Xanomeline Low Dose","TRTSDT":"2013-02-20","TRTEDT":"2013-06-13","TRTDURD":114,"AGE":81,"AGEU":"YEARS","AGEGR1":">80","AGEGR1N":3,"SEX":"F","RACE":"WHITE","ETHNIC":"NOT HISPANIC OR LATINO","WEIGHTBL":47.17,"HEIGHTBL":160.02,"BMIBL":18.4,"RANDFL":"Y","ITTFL":"Y","SAFFL":"Y","EFFFL":"N","COMPLFL":"N","EOSSTT":"DISCONTINUED","DCSREAS":"ADVERSE EVENT","EOSDT":"2013-06-13","DTHFL":null,"DTHDT":null,"DTHDY":null,"DTHCAUS":null},{"STUDYID":"CDISCPILOT01","USUBJID":"01-703-1175","SUBJID":"1175","SITEID":"703","SITEGR1":"900","COUNTRY":"USA","ARM":"Placebo","ARMCD":"Pbo","ACTARM":"Placebo","ACTARMCD":"Pbo","TRT01P":"Placebo","TRT01PN":null,"TRT01A":"Placebo","TRT01AN":null,"TRTP":"Placebo","TRTSDT":"2013-12-20","TRTEDT":"2013-12-26","TRTDURD":7,"AGE":75,"AGEU":"YEARS","AGEGR1":"65-80","AGEGR1N":2,"SEX":"M","RACE":"WHITE","ETHNIC":"NOT HISPANIC OR LATINO","WEIGHTBL":77.11,"HEIGHTBL":170.18,"BMIBL":26.6,"RANDFL":"Y","ITTFL":"Y","SAFFL":"Y","EFFFL":"N","COMPLFL":"N","EOSSTT":"DISCONTINUED","DCSREAS":"PROTOCOL VIOLATION","EOSDT":"2013-12-31","DTHFL":null,"DTHDT":null,"DTHDY":null,"DTHCAUS":null},{"STUDYID":"CDISCPILOT01","USUBJID":"01-703-1182","SUBJID":"1182","SITEID":"703","SITEGR1":"900","COUNTRY":"USA","ARM":"Xanomeline Low Dose","ARMCD":"Xan_Lo","ACTARM":"Xanomeline Low Dose","ACTARMCD":"Xan_Lo","TRT01P":"Xanomeline Low Dose","TRT01PN":null,"TRT01A":"Xanomeline Low Dose","TRT01AN":null,"TRTP":"Xanomeline Low Dose","TRTSDT":"2013-10-17","TRTEDT":"2013-12-11","TRTDURD":56,"AGE":84,"AGEU":"YEARS","AGEGR1":">80","AGEGR1N":3,"SEX":"M","RACE":"WHITE","ETHNIC":"NOT HISPANIC OR LATINO","WEIGHTBL":68.04,"HEIGHTBL":172.72,"BMIBL":22.8,"RANDFL":"Y","ITTFL":"Y","SAFFL":"Y","EFFFL":"N","COMPLFL":"N","EOSSTT":"DISCONTINUED","DCSREAS":"ADVERSE EVENT","EOSDT":"2013-12-12","DTHFL":null,"DTHDT":null,"DTHDY":null,"DTHCAUS":null},{"STUDYID":"CDISCPILOT01","USUBJID":"01-703-1197","SUBJID":"1197","SITEID":"703","SITEGR1":"900","COUNTRY":"USA","ARM":"Xanomeline Low Dose","ARMCD":"Xan_Lo","ACTARM":"Xanomeline Low Dose","ACTARMCD":"Xan_Lo","TRT01P":"Xanomeline Low Dose","TRT01PN":null,"TRT01A":"Xanomeline Low Dose","TRT01AN":null,"TRTP":"Xanomeline Low Dose","TRTSDT":"2013-06-16","TRTEDT":"2013-06-29","TRTDURD":14,"AGE":76,"AGEU":"YEARS","AGEGR1":"65-80","AGEGR1N":2,"SEX":"F","RACE":"BLACK OR AFRICAN AMERICAN","ETHNIC":"NOT HISPANIC OR LATINO","WEIGHTBL":102.06,"HEIGHTBL":162.56,"BMIBL":38.6,"RANDFL":"Y","ITTFL":"Y","SAFFL":"Y","EFFFL":"N","COMPLFL":"N","EOSSTT":"DISCONTINUED","DCSREAS":"WITHDRAWAL BY SUBJECT","EOSDT":"2013-07-22","DTHFL":null,"DTHDT":null,"DTHDY":null,"DTHCAUS":null},{"STUDYID":"CDISCPILOT01","USUBJID":"01-703-1210","SUBJID":"1210","SITEID":"703","SITEGR1":"900","COUNTRY":"USA","ARM":"Placebo","ARMCD":"Pbo","ACTARM":"Placebo","ACTARMCD":"Pbo","TRT01P":"Placebo","TRT01PN":null,"TRT01A":"Placebo","TRT01AN":null,"TRTP":"Placebo","TRTSDT":"2013-03-16","TRTEDT":"2013-09-06","TRTDURD":175,"AGE":72,"AGEU":"YEARS","AGEGR1":"65-80","AGEGR1N":2,"SEX":"F","RACE":"WHITE","ETHNIC":"NOT HISPANIC OR LATINO","WEIGHTBL":49.9,"HEIGHTBL":144.78,"BMIBL":23.8,"RANDFL":"Y","ITTFL":"Y","SAFFL":"Y","EFFFL":"N","COMPLFL":"Y","EOSSTT":"COMPLETED","DCSREAS":"COMPLETED","EOSDT":"2013-09-06","DTHFL":null,"DTHDT":null,"DTHDY":null,"DTHCAUS":null},{"STUDYID":"CDISCPILOT01","USUBJID":"01-703-1258","SUBJID":"1258","SITEID":"703","SITEGR1":"900","COUNTRY":"USA","ARM":"Xanomeline High Dose","ARMCD":"Xan_Hi","ACTARM":"Xanomeline High Dose","ACTARMCD":"Xan_Hi","TRT01P":"Xanomeline High Dose","TRT01PN":null,"TRT01A":"Xanomeline High Dose","TRT01AN":null,"TRTP":"Xanomeline High Dose","TRTSDT":"2012-07-20","TRTEDT":"2013-01-11","TRTDURD":176,"AGE":78,"AGEU":"YEARS","AGEGR1":"65-80","AGEGR1N":2,"SEX":"F","RACE":"WHITE","ETHNIC":"NOT HISPANIC OR LATINO","WEIGHTBL":59.42,"HEIGHTBL":154.94,"BMIBL":24.8,"RANDFL":"Y","ITTFL":"Y","SAFFL":"Y","EFFFL":"N","COMPLFL":"N","EOSSTT":"DISCONTINUED","DCSREAS":"ADVERSE EVENT","EOSDT":"2013-01-21","DTHFL":null,"DTHDT":null,"DTHDY":null,"DTHCAUS":null},{"STUDYID":"CDISCPILOT01","USUBJID":"01-703-1279","SUBJID":"1279","SITEID":"703","SITEGR1":"900","COUNTRY":"USA","ARM":"Xanomeline Low Dose","ARMCD":"Xan_Lo","ACTARM":"Xanomeline Low Dose","ACTARMCD":"Xan_Lo","TRT01P":"Xanomeline Low Dose","TRT01PN":null,"TRT01A":"Xanomeline Low Dose","TRT01AN":null,"TRTP":"Xanomeline Low Dose","TRTSDT":"2013-05-13","TRTEDT":"2013-06-03","TRTDURD":22,"AGE":72,"AGEU":"YEARS","AGEGR1":"65-80","AGEGR1N":2,"SEX":"F","RACE":"WHITE","ETHNIC":"NOT HISPANIC OR LATINO","WEIGHTBL":55.79,"HEIGHTBL":162.56,"BMIBL":21.1,"RANDFL":"Y","ITTFL":"Y","SAFFL":"Y","EFFFL":"N","COMPLFL":"N","EOSSTT":"DISCONTINUED","DCSREAS":"WITHDRAWAL BY SUBJECT","EOSDT":"2013-06-22","DTHFL":null,"DTHDT":null,"DTHDY":null,"DTHCAUS":null},{"STUDYID":"CDISCPILOT01","USUBJID":"01-703-1295","SUBJID":"1295","SITEID":"703","SITEGR1":"900","COUNTRY":"USA","ARM":"Xanomeline High Dose","ARMCD":"Xan_Hi","ACTARM":"Xanomeline High Dose","ACTARMCD":"Xan_Hi","TRT01P":"Xanomeline High Dose","TRT01PN":null,"TRT01A":"Xanomeline High Dose","TRT01AN":null,"TRTP":"Xanomeline High Dose","TRTSDT":"2013-11-21","TRTEDT":"2014-04-19","TRTDURD":150,"AGE":88,"AGEU":"YEARS","AGEGR1":">80","AGEGR1N":3,"SEX":"F","RACE":"WHITE","ETHNIC":"NOT HISPANIC OR LATINO","WEIGHTBL":56.25,"HEIGHTBL":157.48,"BMIBL":22.7,"RANDFL":"Y","ITTFL":"Y","SAFFL":"Y","EFFFL":"N","COMPLFL":"N","EOSSTT":"DISCONTINUED","DCSREAS":"WITHDRAWAL BY SUBJECT","EOSDT":"2014-05-19","DTHFL":null,"DTHDT":null,"DTHDY":null,"DTHCAUS":null},{"STUDYID":"CDISCPILOT01","USUBJID":"01-703-1299","SUBJID":"1299","SITEID":"703","SITEGR1":"900","COUNTRY":"USA","ARM":"Placebo","ARMCD":"Pbo","ACTARM":"Placebo","ACTARMCD":"Pbo","TRT01P":"Placebo","TRT01PN":null,"TRT01A":"Placebo","TRT01AN":null,"TRTP":"Placebo","TRTSDT":"2012-09-12","TRTEDT":"2013-03-13","TRTDURD":183,"AGE":81,"AGEU":"YEARS","AGEGR1":">80","AGEGR1N":3,"SEX":"F","RACE":"WHITE","ETHNIC":"NOT HISPANIC OR LATINO","WEIGHTBL":45.36,"HEIGHTBL":153.67,"BMIBL":19.2,"RANDFL":"Y","ITTFL":"Y","SAFFL":"Y","EFFFL":"N","COMPLFL":"Y","EOSSTT":"COMPLETED","DCSREAS":"COMPLETED","EOSDT":"2013-03-13","DTHFL":null,"DTHDT":null,"DTHDY":null,"DTHCAUS":null},{"STUDYID":"CDISCPILOT01","USUBJID":"01-703-1335","SUBJID":"1335","SITEID":"703","SITEGR1":"900","COUNTRY":"USA","ARM":"Xanomeline High Dose","ARMCD":"Xan_Hi","ACTARM":"Xanomeline High Dose","ACTARMCD":"Xan_Hi","TRT01P":"Xanomeline High Dose","TRT01PN":null,"TRT01A":"Xanomeline High Dose","TRT01AN":null,"TRTP":"Xanomeline High Dose","TRTSDT":"2014-03-17","TRTEDT":"2014-05-07","TRTDURD":52,"AGE":67,"AGEU":"YEARS","AGEGR1":"65-80","AGEGR1N":2,"SEX":"F","RACE":"BLACK OR AFRICAN AMERICAN","ETHNIC":"NOT HISPANIC OR LATINO","WEIGHTBL":55.34,"HEIGHTBL":154.94,"BMIBL":23.1,"RANDFL":"Y","ITTFL":"Y","SAFFL":"Y","EFFFL":"N","COMPLFL":"N","EOSSTT":"DISCONTINUED","DCSREAS":"PROTOCOL VIOLATION","EOSDT":"2014-05-24","DTHFL":null,"DTHDT":null,"DTHDY":null,"DTHCAUS":null},{"STUDYID":"CDISCPILOT01","USUBJID":"01-703-1379","SUBJID":"1379","SITEID":"703","SITEGR1":"900","COUNTRY":"USA","ARM":"Xanomeline Low Dose","ARMCD":"Xan_Lo","ACTARM":"Xanomeline Low Dose","ACTARMCD":"Xan_Lo","TRT01P":"Xanomeline Low Dose","TRT01PN":null,"TRT01A":"Xanomeline Low Dose","TRT01AN":null,"TRTP":"Xanomeline Low Dose","TRTSDT":"2013-09-22","TRTEDT":"2014-03-21","TRTDURD":181,"AGE":81,"AGEU":"YEARS","AGEGR1":">80","AGEGR1N":3,"SEX":"F","RACE":"BLACK OR AFRICAN AMERICAN","ETHNIC":"NOT HISPANIC OR LATINO","WEIGHTBL":76.2,"HEIGHTBL":157.48,"BMIBL":30.7,"RANDFL":"Y","ITTFL":"Y","SAFFL":"Y","EFFFL":"N","COMPLFL":"Y","EOSSTT":"COMPLETED","DCSREAS":"COMPLETED","EOSDT":"2014-03-21","DTHFL":null,"DTHDT":null,"DTHDY":null,"DTHCAUS":null},{"STUDYID":"CDISCPILOT01","USUBJID":"01-703-1396","SUBJID":"1396","SITEID":"703","SITEGR1":"900","COUNTRY":"USA","ARM":"Screen Failure","ARMCD":"Scrnfail","ACTARM":"Screen Failure","ACTARMCD":"Scrnfail","TRT01P":"Screen Failure","TRT01PN":null,"TRT01A":"Screen Failure","TRT01AN":null,"TRTP":"Screen Failure","TRTSDT":null,"TRTEDT":null,"TRTDURD":null,"AGE":84,"AGEU":"YEARS","AGEGR1":">80","AGEGR1N":3,"SEX":"M","RACE":"ASIAN","ETHNIC":"NOT HISPANIC OR LATINO","WEIGHTBL":null,"HEIGHTBL":null,"BMIBL":null,"RANDFL":"Y","ITTFL":"Y","SAFFL":"N","EFFFL":"N","COMPLFL":"N","EOSSTT":"DISCONTINUED","DCSREAS":"SCREEN FAILURE","EOSDT":"2014-02-09","DTHFL":null,"DTHDT":null,"DTHDY":null,"DTHCAUS":null},{"STUDYID":"CDISCPILOT01","USUBJID":"01-703-1403","SUBJID":"1403","SITEID":"703","SITEGR1":"900","COUNTRY":"USA","ARM":"Xanomeline High Dose","ARMCD":"Xan_Hi","ACTARM":"Xanomeline Low Dose","ACTARMCD":"Xan_Lo","TRT01P":"Xanomeline High Dose","TRT01PN":null,"TRT01A":"Xanomeline Low Dose","TRT01AN":null,"TRTP":"Xanomeline High Dose","TRTSDT":"2012-12-12","TRTEDT":"2012-12-13","TRTDURD":2,"AGE":67,"AGEU":"YEARS","AGEGR1":"65-80","AGEGR1N":2,"SEX":"M","RACE":"WHITE","ETHNIC":"NOT HISPANIC OR LATINO","WEIGHTBL":80.29,"HEIGHTBL":177.8,"BMIBL":25.4,"RANDFL":"Y","ITTFL":"Y","SAFFL":"Y","EFFFL":"N","COMPLFL":"N","EOSSTT":"DISCONTINUED","DCSREAS":"ADVERSE EVENT","EOSDT":"2012-12-19","DTHFL":null,"DTHDT":null,"DTHDY":null,"DTHCAUS":null},{"STUDYID":"CDISCPILOT01","USUBJID":"01-703-1439","SUBJID":"1439","SITEID":"703","SITEGR1":"900","COUNTRY":"USA","ARM":"Xanomeline High Dose","ARMCD":"Xan_Hi","ACTARM":"Xanomeline High Dose","ACTARMCD":"Xan_Hi","TRT01P":"Xanomeline High Dose","TRT01PN":null,"TRT01A":"Xanomeline High Dose","TRT01AN":null,"TRTP":"Xanomeline High Dose","TRTSDT":"2014-03-12","TRTEDT":"2014-09-11","TRTDURD":184,"AGE":76,"AGEU":"YEARS","AGEGR1":"65-80","AGEGR1N":2,"SEX":"F","RACE":"WHITE","ETHNIC":"NOT HISPANIC OR LATINO","WEIGHTBL":63.5,"HEIGHTBL":160.02,"BMIBL":24.8,"RANDFL":"Y","ITTFL":"Y","SAFFL":"Y","EFFFL":"N","COMPLFL":"Y","EOSSTT":"COMPLETED","DCSREAS":"COMPLETED","EOSDT":"2014-09-11","DTHFL":null,"DTHDT":null,"DTHDY":null,"DTHCAUS":null},{"STUDYID":"CDISCPILOT01","USUBJID":"01-704-1008","SUBJID":"1008","SITEID":"704","SITEGR1":"900","COUNTRY":"USA","ARM":"Xanomeline High Dose","ARMCD":"Xan_Hi","ACTARM":"Xanomeline High Dose","ACTARMCD":"Xan_Hi","TRT01P":"Xanomeline High Dose","TRT01PN":null,"TRT01A":"Xanomeline High Dose","TRT01AN":null,"TRTP":"Xanomeline High Dose","TRTSDT":"2013-01-13","TRTEDT":"2013-02-21","TRTDURD":40,"AGE":76,"AGEU":"YEARS","AGEGR1":"65-80","AGEGR1N":2,"SEX":"F","RACE":"WHITE","ETHNIC":"NOT HISPANIC OR LATINO","WEIGHTBL":46.72,"HEIGHTBL":148,"BMIBL":21.3,"RANDFL":"Y","ITTFL":"Y","SAFFL":"Y","EFFFL":"N","COMPLFL":"N","EOSSTT":"DISCONTINUED","DCSREAS":"ADVERSE EVENT","EOSDT":"2013-02-25","DTHFL":null,"DTHDT":null,"DTHDY":null,"DTHCAUS":null},{"STUDYID":"CDISCPILOT01","USUBJID":"01-704-1009","SUBJID":"1009","SITEID":"704","SITEGR1":"900","COUNTRY":"USA","ARM":"Xanomeline Low Dose","ARMCD":"Xan_Lo","ACTARM":"Xanomeline Low Dose","ACTARMCD":"Xan_Lo","TRT01P":"Xanomeline Low Dose","TRT01PN":null,"TRT01A":"Xanomeline Low Dose","TRT01AN":null,"TRTP":"Xanomeline Low Dose","TRTSDT":"2013-08-27","TRTEDT":"2013-09-25","TRTDURD":30,"AGE":83,"AGEU":"YEARS","AGEGR1":">80","AGEGR1N":3,"SEX":"M","RACE":"WHITE","ETHNIC":"NOT HISPANIC OR LATINO","WEIGHTBL":66.68,"HEIGHTBL":179.07,"BMIBL":20.8,"RANDFL":"Y","ITTFL":"Y","SAFFL":"Y","EFFFL":"N","COMPLFL":"N","EOSSTT":"DISCONTINUED","DCSREAS":"WITHDRAWAL BY SUBJECT","EOSDT":"2013-10-02","DTHFL":null,"DTHDT":null,"DTHDY":null,"DTHCAUS":null},{"STUDYID":"CDISCPILOT01","USUBJID":"01-704-1010","SUBJID":"1010","SITEID":"704","SITEGR1":"900","COUNTRY":"USA","ARM":"Placebo","ARMCD":"Pbo","ACTARM":"Placebo","ACTARMCD":"Pbo","TRT01P":"Placebo","TRT01PN":null,"TRT01A":"Placebo","TRT01AN":null,"TRTP":"Placebo","TRTSDT":"2014-02-21","TRTEDT":"2014-07-08","TRTDURD":138,"AGE":80,"AGEU":"YEARS","AGEGR1":"65-80","AGEGR1N":2,"SEX":"M","RACE":"WHITE","ETHNIC":"NOT HISPANIC OR LATINO","WEIGHTBL":80.97,"HEIGHTBL":177.8,"BMIBL":25.6,"RANDFL":"Y","ITTFL":"Y","SAFFL":"Y","EFFFL":"N","COMPLFL":"N","EOSSTT":"DISCONTINUED","DCSREAS":"WITHDRAWAL BY SUBJECT","EOSDT":"2014-07-09","DTHFL":null,"DTHDT":null,"DTHDY":null,"DTHCAUS":null},{"STUDYID":"CDISCPILOT01","USUBJID":"01-704-1017","SUBJID":"1017","SITEID":"704","SITEGR1":"900","COUNTRY":"USA","ARM":"Xanomeline High Dose","ARMCD":"Xan_Hi","ACTARM":"Xanomeline High Dose","ACTARMCD":"Xan_Hi","TRT01P":"Xanomeline High Dose","TRT01PN":null,"TRT01A":"Xanomeline High Dose","TRT01AN":null,"TRTP":"Xanomeline High Dose","TRTSDT":"2013-10-06","TRTEDT":"2013-11-18","TRTDURD":44,"AGE":77,"AGEU":"YEARS","AGEGR1":"65-80","AGEGR1N":2,"SEX":"M","RACE":"WHITE","ETHNIC":"NOT HISPANIC OR LATINO","WEIGHTBL":63.05,"HEIGHTBL":170.18,"BMIBL":21.8,"RANDFL":"Y","ITTFL":"Y","SAFFL":"Y","EFFFL":"N","COMPLFL":"N","EOSSTT":"DISCONTINUED","DCSREAS":"ADVERSE EVENT","EOSDT":"2013-11-24","DTHFL":null,"DTHDT":null,"DTHDY":null,"DTHCAUS":null},{"STUDYID":"CDISCPILOT01","USUBJID":"01-704-1025","SUBJID":"1025","SITEID":"704","SITEGR1":"900","COUNTRY":"USA","ARM":"Xanomeline Low Dose","ARMCD":"Xan_Lo","ACTARM":"Xanomeline Low Dose","ACTARMCD":"Xan_Lo","TRT01P":"Xanomeline Low Dose","TRT01PN":null,"TRT01A":"Xanomeline Low Dose","TRT01AN":null,"TRTP":"Xanomeline Low Dose","TRTSDT":"2013-09-27","TRTEDT":"2013-10-24","TRTDURD":28,"AGE":81,"AGEU":"YEARS","AGEGR1":">80","AGEGR1N":3,"SEX":"F","RACE":"WHITE","ETHNIC":"NOT HISPANIC OR LATINO","WEIGHTBL":55.52,"HEIGHTBL":166,"BMIBL":20.1,"RANDFL":"Y","ITTFL":"Y","SAFFL":"Y","EFFFL":"N","COMPLFL":"N","EOSSTT":"DISCONTINUED","DCSREAS":"ADVERSE EVENT","EOSDT":"2013-11-29","DTHFL":null,"DTHDT":null,"DTHDY":null,"DTHCAUS":null},{"STUDYID":"CDISCPILOT01","USUBJID":"01-704-1065","SUBJID":"1065","SITEID":"704","SITEGR1":"900","COUNTRY":"USA","ARM":"Xanomeline High Dose","ARMCD":"Xan_Hi","ACTARM":"Xanomeline High Dose","ACTARMCD":"Xan_Hi","TRT01P":"Xanomeline High Dose","TRT01PN":null,"TRT01A":"Xanomeline High Dose","TRT01AN":null,"TRTP":"Xanomeline High Dose","TRTSDT":"2013-10-24","TRTEDT":"2013-12-22","TRTDURD":60,"AGE":75,"AGEU":"YEARS","AGEGR1":"65-80","AGEGR1N":2,"SEX":"M","RACE":"WHITE","ETHNIC":"NOT HISPANIC OR LATINO","WEIGHTBL":80.74,"HEIGHTBL":180.34,"BMIBL":24.8,"RANDFL":"Y","ITTFL":"Y","SAFFL":"Y","EFFFL":"N","COMPLFL":"N","EOSSTT":"DISCONTINUED","DCSREAS":"ADVERSE EVENT","EOSDT":"2013-12-24","DTHFL":null,"DTHDT":null,"DTHDY":null,"DTHCAUS":null},{"STUDYID":"CDISCPILOT01","USUBJID":"01-704-1074","SUBJID":"1074","SITEID":"704","SITEGR1":"900","COUNTRY":"USA","ARM":"Xanomeline High Dose","ARMCD":"Xan_Hi","ACTARM":"Xanomeline High Dose","ACTARMCD":"Xan_Hi","TRT01P":"Xanomeline High Dose","TRT01PN":null,"TRT01A":"Xanomeline High Dose","TRT01AN":null,"TRTP":"Xanomeline High Dose","TRTSDT":"2014-01-22","TRTEDT":"2014-03-20","TRTDURD":58,"AGE":80,"AGEU":"YEARS","AGEGR1":"65-80","AGEGR1N":2,"SEX":"F","RACE":"WHITE","ETHNIC":"NOT HISPANIC OR LATINO","WEIGHTBL":75.75,"HEIGHTBL":167.64,"BMIBL":27,"RANDFL":"Y","ITTFL":"Y","SAFFL":"Y","EFFFL":"N","COMPLFL":"N","EOSSTT":"DISCONTINUED","DCSREAS":"ADVERSE EVENT","EOSDT":"2014-03-31","DTHFL":null,"DTHDT":null,"DTHDY":null,"DTHCAUS":null},{"STUDYID":"CDISCPILOT01","USUBJID":"01-704-1093","SUBJID":"1093","SITEID":"704","SITEGR1":"900","COUNTRY":"USA","ARM":"Xanomeline High Dose","ARMCD":"Xan_Hi","ACTARM":"Xanomeline High Dose","ACTARMCD":"Xan_Hi","TRT01P":"Xanomeline High Dose","TRT01PN":null,"TRT01A":"Xanomeline High Dose","TRT01AN":null,"TRTP":"Xanomeline High Dose","TRTSDT":"2013-03-15","TRTEDT":"2013-06-17","TRTDURD":95,"AGE":79,"AGEU":"YEARS","AGEGR1":"65-80","AGEGR1N":2,"SEX":"M","RACE":"WHITE","ETHNIC":"NOT HISPANIC OR LATINO","WEIGHTBL":73.48,"HEIGHTBL":173.99,"BMIBL":24.3,"RANDFL":"Y","ITTFL":"Y","SAFFL":"Y","EFFFL":"N","COMPLFL":"N","EOSSTT":"DISCONTINUED","DCSREAS":"ADVERSE EVENT","EOSDT":"2013-06-20","DTHFL":null,"DTHDT":null,"DTHDY":null,"DTHCAUS":null},{"STUDYID":"CDISCPILOT01","USUBJID":"01-704-1114","SUBJID":"1114","SITEID":"704","SITEGR1":"900","COUNTRY":"USA","ARM":"Xanomeline Low Dose","ARMCD":"Xan_Lo","ACTARM":"Xanomeline Low Dose","ACTARMCD":"Xan_Lo","TRT01P":"Xanomeline Low Dose","TRT01PN":null,"TRT01A":"Xanomeline Low Dose","TRT01AN":null,"TRTP":"Xanomeline Low Dose","TRTSDT":"2013-01-23","TRTEDT":"2013-07-07","TRTDURD":166,"AGE":77,"AGEU":"YEARS","AGEGR1":"65-80","AGEGR1N":2,"SEX":"M","RACE":"WHITE","ETHNIC":"NOT HISPANIC OR LATINO","WEIGHTBL":77.79,"HEIGHTBL":166.37,"BMIBL":28.1,"RANDFL":"Y","ITTFL":"Y","SAFFL":"Y","EFFFL":"N","COMPLFL":"N","EOSSTT":"DISCONTINUED","DCSREAS":"WITHDRAWAL BY SUBJECT","EOSDT":"2013-07-08","DTHFL":null,"DTHDT":null,"DTHDY":null,"DTHCAUS":null},{"STUDYID":"CDISCPILOT01","USUBJID":"01-704-1120","SUBJID":"1120","SITEID":"704","SITEGR1":"900","COUNTRY":"USA","ARM":"Xanomeline Low Dose","ARMCD":"Xan_Lo","ACTARM":"Xanomeline Low Dose","ACTARMCD":"Xan_Lo","TRT01P":"Xanomeline Low Dose","TRT01PN":null,"TRT01A":"Xanomeline Low Dose","TRT01AN":null,"TRTP":"Xanomeline Low Dose","TRTSDT":"2013-12-02","TRTEDT":"2014-02-01","TRTDURD":62,"AGE":71,"AGEU":"YEARS","AGEGR1":"65-80","AGEGR1N":2,"SEX":"F","RACE":"WHITE","ETHNIC":"NOT HISPANIC OR LATINO","WEIGHTBL":51.71,"HEIGHTBL":147,"BMIBL":23.9,"RANDFL":"Y","ITTFL":"Y","SAFFL":"Y","EFFFL":"N","COMPLFL":"N","EOSSTT":"DISCONTINUED","DCSREAS":"ADVERSE EVENT","EOSDT":"2014-02-03","DTHFL":null,"DTHDT":null,"DTHDY":null,"DTHCAUS":null},{"STUDYID":"CDISCPILOT01","USUBJID":"01-704-1127","SUBJID":"1127","SITEID":"704","SITEGR1":"900","COUNTRY":"USA","ARM":"Placebo","ARMCD":"Pbo","ACTARM":"Placebo","ACTARMCD":"Pbo","TRT01P":"Placebo","TRT01PN":null,"TRT01A":"Placebo","TRT01AN":null,"TRTP":"Placebo","TRTSDT":"2013-10-02","TRTEDT":"2014-03-31","TRTDURD":181,"AGE":84,"AGEU":"YEARS","AGEGR1":">80","AGEGR1N":3,"SEX":"F","RACE":"WHITE","ETHNIC":"NOT HISPANIC OR LATINO","WEIGHTBL":41.05,"HEIGHTBL":165.1,"BMIBL":15.1,"RANDFL":"Y","ITTFL":"Y","SAFFL":"Y","EFFFL":"N","COMPLFL":"Y","EOSSTT":"COMPLETED","DCSREAS":"COMPLETED","EOSDT":"2014-03-31","DTHFL":null,"DTHDT":null,"DTHDY":null,"DTHCAUS":null},{"STUDYID":"CDISCPILOT01","USUBJID":"01-704-1135","SUBJID":"1135","SITEID":"704","SITEGR1":"900","COUNTRY":"USA","ARM":"Xanomeline Low Dose","ARMCD":"Xan_Lo","ACTARM":"Xanomeline Low Dose","ACTARMCD":"Xan_Lo","TRT01P":"Xanomeline Low Dose","TRT01PN":null,"TRT01A":"Xanomeline Low Dose","TRT01AN":null,"TRTP":"Xanomeline Low Dose","TRTSDT":"2013-10-31","TRTEDT":"2014-05-16","TRTDURD":198,"AGE":74,"AGEU":"YEARS","AGEGR1":"65-80","AGEGR1N":2,"SEX":"F","RACE":"WHITE","ETHNIC":"NOT HISPANIC OR LATINO","WEIGHTBL":64.41,"HEIGHTBL":161.8,"BMIBL":24.6,"RANDFL":"Y","ITTFL":"Y","SAFFL":"Y","EFFFL":"N","COMPLFL":"Y","EOSSTT":"COMPLETED","DCSREAS":"COMPLETED","EOSDT":"2014-05-16","DTHFL":null,"DTHDT":null,"DTHDY":null,"DTHCAUS":null},{"STUDYID":"CDISCPILOT01","USUBJID":"01-704-1164","SUBJID":"1164","SITEID":"704","SITEGR1":"900","COUNTRY":"USA","ARM":"Placebo","ARMCD":"Pbo","ACTARM":"Placebo","ACTARMCD":"Pbo","TRT01P":"Placebo","TRT01PN":null,"TRT01A":"Placebo","TRT01AN":null,"TRTP":"Placebo","TRTSDT":"2012-09-19","TRTEDT":"2013-04-04","TRTDURD":198,"AGE":67,"AGEU":"YEARS","AGEGR1":"65-80","AGEGR1N":2,"SEX":"F","RACE":"WHITE","ETHNIC":"NOT HISPANIC OR LATINO","WEIGHTBL":49.9,"HEIGHTBL":157.48,"BMIBL":20.1,"RANDFL":"Y","ITTFL":"Y","SAFFL":"Y","EFFFL":"N","COMPLFL":"Y","EOSSTT":"COMPLETED","DCSREAS":"COMPLETED","EOSDT":"2013-04-04","DTHFL":null,"DTHDT":null,"DTHDY":null,"DTHCAUS":null},{"STUDYID":"CDISCPILOT01","USUBJID":"01-704-1218","SUBJID":"1218","SITEID":"704","SITEGR1":"900","COUNTRY":"USA","ARM":"Xanomeline Low Dose","ARMCD":"Xan_Lo","ACTARM":"Xanomeline Low Dose","ACTARMCD":"Xan_Lo","TRT01P":"Xanomeline Low Dose","TRT01PN":null,"TRT01A":"Xanomeline Low Dose","TRT01AN":null,"TRTP":"Xanomeline Low Dose","TRTSDT":"2012-11-19","TRTEDT":"2013-05-27","TRTDURD":190,"AGE":81,"AGEU":"YEARS","AGEGR1":">80","AGEGR1N":3,"SEX":"F","RACE":"WHITE","ETHNIC":"NOT HISPANIC OR LATINO","WEIGHTBL":54.43,"HEIGHTBL":144,"BMIBL":26.2,"RANDFL":"Y","ITTFL":"Y","SAFFL":"Y","EFFFL":"N","COMPLFL":"Y","EOSSTT":"COMPLETED","DCSREAS":"COMPLETED","EOSDT":"2013-05-27","DTHFL":null,"DTHDT":null,"DTHDY":null,"DTHCAUS":null},{"STUDYID":"CDISCPILOT01","USUBJID":"01-704-1233","SUBJID":"1233","SITEID":"704","SITEGR1":"900","COUNTRY":"USA","ARM":"Placebo","ARMCD":"Pbo","ACTARM":"Placebo","ACTARMCD":"Pbo","TRT01P":"Placebo","TRT01PN":null,"TRT01A":"Placebo","TRT01AN":null,"TRTP":"Placebo","TRTSDT":"2013-03-21","TRTEDT":"2013-04-04","TRTDURD":15,"AGE":87,"AGEU":"YEARS","AGEGR1":">80","AGEGR1N":3,"SEX":"F","RACE":"WHITE","ETHNIC":"NOT HISPANIC OR LATINO","WEIGHTBL":46.27,"HEIGHTBL":147.32,"BMIBL":21.3,"RANDFL":"Y","ITTFL":"Y","SAFFL":"Y","EFFFL":"N","COMPLFL":"N","EOSSTT":"DISCONTINUED","DCSREAS":"WITHDRAWAL BY SUBJECT","EOSDT":"2013-07-14","DTHFL":null,"DTHDT":null,"DTHDY":null,"DTHCAUS":null},{"STUDYID":"CDISCPILOT01","USUBJID":"01-704-1241","SUBJID":"1241","SITEID":"704","SITEGR1":"900","COUNTRY":"USA","ARM":"Xanomeline High Dose","ARMCD":"Xan_Hi","ACTARM":"Xanomeline High Dose","ACTARMCD":"Xan_Hi","TRT01P":"Xanomeline High Dose","TRT01PN":null,"TRT01A":"Xanomeline High Dose","TRT01AN":null,"TRTP":"Xanomeline High Dose","TRTSDT":"2013-08-25","TRTEDT":"2013-10-09","TRTDURD":46,"AGE":86,"AGEU":"YEARS","AGEGR1":">80","AGEGR1N":3,"SEX":"M","RACE":"WHITE","ETHNIC":"NOT HISPANIC OR LATINO","WEIGHTBL":73.03,"HEIGHTBL":170.18,"BMIBL":25.2,"RANDFL":"Y","ITTFL":"Y","SAFFL":"Y","EFFFL":"N","COMPLFL":"N","EOSSTT":"DISCONTINUED","DCSREAS":"ADVERSE EVENT","EOSDT":"2013-10-31","DTHFL":null,"DTHDT":null,"DTHDY":null,"DTHCAUS":null},{"STUDYID":"CDISCPILOT01","USUBJID":"01-704-1260","SUBJID":"1260","SITEID":"704","SITEGR1":"900","COUNTRY":"USA","ARM":"Placebo","ARMCD":"Pbo","ACTARM":"Placebo","ACTARMCD":"Pbo","TRT01P":"Placebo","TRT01PN":null,"TRT01A":"Placebo","TRT01AN":null,"TRTP":"Placebo","TRTSDT":"2012-08-30","TRTEDT":"2012-11-04","TRTDURD":67,"AGE":71,"AGEU":"YEARS","AGEGR1":"65-80","AGEGR1N":2,"SEX":"F","RACE":"WHITE","ETHNIC":"NOT HISPANIC OR LATINO","WEIGHTBL":48.76,"HEIGHTBL":160.02,"BMIBL":19,"RANDFL":"Y","ITTFL":"Y","SAFFL":"Y","EFFFL":"N","COMPLFL":"N","EOSSTT":"DISCONTINUED","DCSREAS":"WITHDRAWAL BY SUBJECT","EOSDT":"2013-01-18","DTHFL":null,"DTHDT":null,"DTHDY":null,"DTHCAUS":null},{"STUDYID":"CDISCPILOT01","USUBJID":"01-704-1266","SUBJID":"1266","SITEID":"704","SITEGR1":"900","COUNTRY":"USA","ARM":"Xanomeline High Dose","ARMCD":"Xan_Hi","ACTARM":"Xanomeline High Dose","ACTARMCD":"Xan_Hi","TRT01P":"Xanomeline High Dose","TRT01PN":null,"TRT01A":"Xanomeline High Dose","TRT01AN":null,"TRTP":"Xanomeline High Dose","TRTSDT":"2013-10-13","TRTEDT":"2013-12-06","TRTDURD":55,"AGE":82,"AGEU":"YEARS","AGEGR1":">80","AGEGR1N":3,"SEX":"M","RACE":"WHITE","ETHNIC":"NOT HISPANIC OR LATINO","WEIGHTBL":88.45,"HEIGHTBL":173.99,"BMIBL":29.2,"RANDFL":"Y","ITTFL":"Y","SAFFL":"Y","EFFFL":"N","COMPLFL":"N","EOSSTT":"DISCONTINUED","DCSREAS":"ADVERSE EVENT","EOSDT":"2013-12-06","DTHFL":null,"DTHDT":null,"DTHDY":null,"DTHCAUS":null},{"STUDYID":"CDISCPILOT01","USUBJID":"01-704-1323","SUBJID":"1323","SITEID":"704","SITEGR1":"900","COUNTRY":"USA","ARM":"Xanomeline Low Dose","ARMCD":"Xan_Lo","ACTARM":"Xanomeline Low Dose","ACTARMCD":"Xan_Lo","TRT01P":"Xanomeline Low Dose","TRT01PN":null,"TRT01A":"Xanomeline Low Dose","TRT01AN":null,"TRTP":"Xanomeline Low Dose","TRTSDT":"2013-07-08","TRTEDT":"2013-08-05","TRTDURD":29,"AGE":68,"AGEU":"YEARS","AGEGR1":"65-80","AGEGR1N":2,"SEX":"F","RACE":"WHITE","ETHNIC":"NOT HISPANIC OR LATINO","WEIGHTBL":59.88,"HEIGHTBL":162.56,"BMIBL":22.7,"RANDFL":"Y","ITTFL":"Y","SAFFL":"Y","EFFFL":"N","COMPLFL":"N","EOSSTT":"DISCONTINUED","DCSREAS":"ADVERSE EVENT","EOSDT":"2013-08-08","DTHFL":null,"DTHDT":null,"DTHDY":null,"DTHCAUS":null},{"STUDYID":"CDISCPILOT01","USUBJID":"01-704-1325","SUBJID":"1325","SITEID":"704","SITEGR1":"900","COUNTRY":"USA","ARM":"Xanomeline Low Dose","ARMCD":"Xan_Lo","ACTARM":"Xanomeline Low Dose","ACTARMCD":"Xan_Lo","TRT01P":"Xanomeline Low Dose","TRT01PN":null,"TRT01A":"Xanomeline Low Dose","TRT01AN":null,"TRTP":"Xanomeline Low Dose","TRTSDT":"2014-04-23","TRTEDT":"2014-07-04","TRTDURD":73,"AGE":81,"AGEU":"YEARS","AGEGR1":">80","AGEGR1N":3,"SEX":"M","RACE":"WHITE","ETHNIC":"NOT HISPANIC OR LATINO","WEIGHTBL":68.49,"HEIGHTBL":175.26,"BMIBL":22.3,"RANDFL":"Y","ITTFL":"Y","SAFFL":"Y","EFFFL":"N","COMPLFL":"N","EOSSTT":"DISCONTINUED","DCSREAS":"PROTOCOL VIOLATION","EOSDT":"2014-08-06","DTHFL":null,"DTHDT":null,"DTHDY":null,"DTHCAUS":null},{"STUDYID":"CDISCPILOT01","USUBJID":"01-704-1332","SUBJID":"1332","SITEID":"704","SITEGR1":"900","COUNTRY":"USA","ARM":"Xanomeline High Dose","ARMCD":"Xan_Hi","ACTARM":"Xanomeline High Dose","ACTARMCD":"Xan_Hi","TRT01P":"Xanomeline High Dose","TRT01PN":null,"TRT01A":"Xanomeline High Dose","TRT01AN":null,"TRTP":"Xanomeline High Dose","TRTSDT":"2013-12-09","TRTEDT":"2014-02-14","TRTDURD":68,"AGE":80,"AGEU":"YEARS","AGEGR1":"65-80","AGEGR1N":2,"SEX":"M","RACE":"WHITE","ETHNIC":"NOT HISPANIC OR LATINO","WEIGHTBL":78.47,"HEIGHTBL":173,"BMIBL":26.2,"RANDFL":"Y","ITTFL":"Y","SAFFL":"Y","EFFFL":"N","COMPLFL":"N","EOSSTT":"DISCONTINUED","DCSREAS":"ADVERSE EVENT","EOSDT":"2014-02-16","DTHFL":null,"DTHDT":null,"DTHDY":null,"DTHCAUS":null},{"STUDYID":"CDISCPILOT01","USUBJID":"01-704-1351","SUBJID":"1351","SITEID":"704","SITEGR1":"900","COUNTRY":"USA","ARM":"Placebo","ARMCD":"Pbo","ACTARM":"Placebo","ACTARMCD":"Pbo","TRT01P":"Placebo","TRT01PN":null,"TRT01A":"Placebo","TRT01AN":null,"TRTP":"Placebo","TRTSDT":"2013-10-12","TRTEDT":"2014-04-18","TRTDURD":189,"AGE":70,"AGEU":"YEARS","AGEGR1":"65-80","AGEGR1N":2,"SEX":"M","RACE":"WHITE","ETHNIC":"NOT HISPANIC OR LATINO","WEIGHTBL":73.48,"HEIGHTBL":175.26,"BMIBL":23.9,"RANDFL":"Y","ITTFL":"Y","SAFFL":"Y","EFFFL":"N","COMPLFL":"Y","EOSSTT":"COMPLETED","DCSREAS":"COMPLETED","EOSDT":"2014-04-18","DTHFL":null,"DTHDT":null,"DTHDY":null,"DTHCAUS":null},{"STUDYID":"CDISCPILOT01","USUBJID":"01-704-1388","SUBJID":"1388","SITEID":"704","SITEGR1":"900","COUNTRY":"USA","ARM":"Placebo","ARMCD":"Pbo","ACTARM":"Placebo","ACTARMCD":"Pbo","TRT01P":"Placebo","TRT01PN":null,"TRT01A":"Placebo","TRT01AN":null,"TRTP":"Placebo","TRTSDT":"2012-12-07","TRTEDT":"2013-06-11","TRTDURD":187,"AGE":81,"AGEU":"YEARS","AGEGR1":">80","AGEGR1N":3,"SEX":"M","RACE":"WHITE","ETHNIC":"NOT HISPANIC OR LATINO","WEIGHTBL":58.51,"HEIGHTBL":176.53,"BMIBL":18.8,"RANDFL":"Y","ITTFL":"Y","SAFFL":"Y","EFFFL":"N","COMPLFL":"Y","EOSSTT":"COMPLETED","DCSREAS":"COMPLETED","EOSDT":"2013-06-19","DTHFL":null,"DTHDT":null,"DTHDY":null,"DTHCAUS":null},{"STUDYID":"CDISCPILOT01","USUBJID":"01-704-1435","SUBJID":"1435","SITEID":"704","SITEGR1":"900","COUNTRY":"USA","ARM":"Placebo","ARMCD":"Pbo","ACTARM":"Placebo","ACTARMCD":"Pbo","TRT01P":"Placebo","TRT01PN":null,"TRT01A":"Placebo","TRT01AN":null,"TRTP":"Placebo","TRTSDT":"2012-11-17","TRTEDT":"2013-01-09","TRTDURD":54,"AGE":74,"AGEU":"YEARS","AGEGR1":"65-80","AGEGR1N":2,"SEX":"M","RACE":"WHITE","ETHNIC":"NOT HISPANIC OR LATINO","WEIGHTBL":76.2,"HEIGHTBL":167.64,"BMIBL":27.1,"RANDFL":"Y","ITTFL":"Y","SAFFL":"Y","EFFFL":"N","COMPLFL":"N","EOSSTT":"DISCONTINUED","DCSREAS":"WITHDRAWAL BY SUBJECT","EOSDT":"2013-01-12","DTHFL":null,"DTHDT":null,"DTHDY":null,"DTHCAUS":null},{"STUDYID":"CDISCPILOT01","USUBJID":"01-704-1445","SUBJID":"1445","SITEID":"704","SITEGR1":"900","COUNTRY":"USA","ARM":"Placebo","ARMCD":"Pbo","ACTARM":"Placebo","ACTARMCD":"Pbo","TRT01P":"Placebo","TRT01PN":null,"TRT01A":"Placebo","TRT01AN":null,"TRTP":"Placebo","TRTSDT":"2014-05-11","TRTEDT":"2014-11-01","TRTDURD":175,"AGE":75,"AGEU":"YEARS","AGEGR1":"65-80","AGEGR1N":2,"SEX":"M","RACE":"WHITE","ETHNIC":"NOT HISPANIC OR LATINO","WEIGHTBL":72.12,"HEIGHTBL":177.8,"BMIBL":22.8,"RANDFL":"Y","ITTFL":"Y","SAFFL":"Y","EFFFL":"N","COMPLFL":"N","EOSSTT":"DISCONTINUED","DCSREAS":"DEATH","EOSDT":"2014-11-01","DTHFL":"Y","DTHDT":"2014-11-01","DTHDY":175,"DTHCAUS":null},{"STUDYID":"CDISCPILOT01","USUBJID":"01-705-1011","SUBJID":"1011","SITEID":"705","SITEGR1":"900","COUNTRY":"USA","ARM":"Screen Failure","ARMCD":"Scrnfail","ACTARM":"Screen Failure","ACTARMCD":"Scrnfail","TRT01P":"Screen Failure","TRT01PN":null,"TRT01A":"Screen Failure","TRT01AN":null,"TRTP":"Screen Failure","TRTSDT":null,"TRTEDT":null,"TRTDURD":null,"AGE":75,"AGEU":"YEARS","AGEGR1":"65-80","AGEGR1N":2,"SEX":"F","RACE":"WHITE","ETHNIC":"NOT HISPANIC OR LATINO","WEIGHTBL":null,"HEIGHTBL":null,"BMIBL":null,"RANDFL":"Y","ITTFL":"Y","SAFFL":"N","EFFFL":"N","COMPLFL":"N","EOSSTT":"DISCONTINUED","DCSREAS":"SCREEN FAILURE","EOSDT":"2013-09-01","DTHFL":null,"DTHDT":null,"DTHDY":null,"DTHCAUS":null},{"STUDYID":"CDISCPILOT01","USUBJID":"01-705-1018","SUBJID":"1018","SITEID":"705","SITEGR1":"900","COUNTRY":"USA","ARM":"Placebo","ARMCD":"Pbo","ACTARM":"Placebo","ACTARMCD":"Pbo","TRT01P":"Placebo","TRT01PN":null,"TRT01A":"Placebo","TRT01AN":null,"TRTP":"Placebo","TRTSDT":"2013-07-05","TRTEDT":null,"TRTDURD":null,"AGE":69,"AGEU":"YEARS","AGEGR1":"65-80","AGEGR1N":2,"SEX":"F","RACE":"WHITE","ETHNIC":"NOT HISPANIC OR LATINO","WEIGHTBL":48.99,"HEIGHTBL":147.32,"BMIBL":22.6,"RANDFL":"Y","ITTFL":"Y","SAFFL":"Y","EFFFL":"N","COMPLFL":"N","EOSSTT":"DISCONTINUED","DCSREAS":"WITHDRAWAL BY SUBJECT","EOSDT":"2013-07-12","DTHFL":null,"DTHDT":null,"DTHDY":null,"DTHCAUS":null},{"STUDYID":"CDISCPILOT01","USUBJID":"01-705-1031","SUBJID":"1031","SITEID":"705","SITEGR1":"900","COUNTRY":"USA","ARM":"Xanomeline Low Dose","ARMCD":"Xan_Lo","ACTARM":"Xanomeline Low Dose","ACTARMCD":"Xan_Lo","TRT01P":"Xanomeline Low Dose","TRT01PN":null,"TRT01A":"Xanomeline Low Dose","TRT01AN":null,"TRTP":"Xanomeline Low Dose","TRTSDT":"2013-11-27","TRTEDT":"2013-12-18","TRTDURD":22,"AGE":56,"AGEU":"YEARS","AGEGR1":"<65","AGEGR1N":1,"SEX":"F","RACE":"WHITE","ETHNIC":"HISPANIC OR LATINO","WEIGHTBL":71.67,"HEIGHTBL":157.48,"BMIBL":28.9,"RANDFL":"Y","ITTFL":"Y","SAFFL":"Y","EFFFL":"N","COMPLFL":"N","EOSSTT":"DISCONTINUED","DCSREAS":"LOST TO FOLLOW-UP","EOSDT":"2014-05-11","DTHFL":null,"DTHDT":null,"DTHDY":null,"DTHCAUS":null},{"STUDYID":"CDISCPILOT01","USUBJID":"01-705-1058","SUBJID":"1058","SITEID":"705","SITEGR1":"900","COUNTRY":"USA","ARM":"Screen Failure","ARMCD":"Scrnfail","ACTARM":"Screen Failure","ACTARMCD":"Scrnfail","TRT01P":"Screen Failure","TRT01PN":null,"TRT01A":"Screen Failure","TRT01AN":null,"TRTP":"Screen Failure","TRTSDT":null,"TRTEDT":null,"TRTDURD":null,"AGE":89,"AGEU":"YEARS","AGEGR1":">80","AGEGR1N":3,"SEX":"M","RACE":"WHITE","ETHNIC":"NOT HISPANIC OR LATINO","WEIGHTBL":null,"HEIGHTBL":null,"BMIBL":null,"RANDFL":"Y","ITTFL":"Y","SAFFL":"N","EFFFL":"N","COMPLFL":"N","EOSSTT":"DISCONTINUED","DCSREAS":"SCREEN FAILURE","EOSDT":"2013-12-02","DTHFL":null,"DTHDT":null,"DTHDY":null,"DTHCAUS":null},{"STUDYID":"CDISCPILOT01","USUBJID":"01-705-1059","SUBJID":"1059","SITEID":"705","SITEGR1":"900","COUNTRY":"USA","ARM":"Placebo","ARMCD":"Pbo","ACTARM":"Placebo","ACTARMCD":"Pbo","TRT01P":"Placebo","TRT01PN":null,"TRT01A":"Placebo","TRT01AN":null,"TRTP":"Placebo","TRTSDT":"2013-08-05","TRTEDT":"2013-12-05","TRTDURD":123,"AGE":66,"AGEU":"YEARS","AGEGR1":"65-80","AGEGR1N":2,"SEX":"F","RACE":"WHITE","ETHNIC":"NOT HISPANIC OR LATINO","WEIGHTBL":53.98,"HEIGHTBL":162.6,"BMIBL":20.4,"RANDFL":"Y","ITTFL":"Y","SAFFL":"Y","EFFFL":"N","COMPLFL":"N","EOSSTT":"DISCONTINUED","DCSREAS":"ADVERSE EVENT","EOSDT":"2013-12-05","DTHFL":null,"DTHDT":null,"DTHDY":null,"DTHCAUS":null},{"STUDYID":"CDISCPILOT01","USUBJID":"01-705-1112","SUBJID":"1112","SITEID":"705","SITEGR1":"900","COUNTRY":"USA","ARM":"Screen Failure","ARMCD":"Scrnfail","ACTARM":"Screen Failure","ACTARMCD":"Scrnfail","TRT01P":"Screen Failure","TRT01PN":null,"TRT01A":"Screen Failure","TRT01AN":null,"TRTP":"Screen Failure","TRTSDT":null,"TRTEDT":null,"TRTDURD":null,"AGE":78,"AGEU":"YEARS","AGEGR1":"65-80","AGEGR1N":2,"SEX":"M","RACE":"WHITE","ETHNIC":"NOT HISPANIC OR LATINO","WEIGHTBL":null,"HEIGHTBL":null,"BMIBL":null,"RANDFL":"Y","ITTFL":"Y","SAFFL":"N","EFFFL":"N","COMPLFL":"N","EOSSTT":"DISCONTINUED","DCSREAS":"SCREEN FAILURE","EOSDT":"2014-02-23","DTHFL":null,"DTHDT":null,"DTHDY":null,"DTHCAUS":null},{"STUDYID":"CDISCPILOT01","USUBJID":"01-705-1186","SUBJID":"1186","SITEID":"705","SITEGR1":"900","COUNTRY":"USA","ARM":"Placebo","ARMCD":"Pbo","ACTARM":"Placebo","ACTARMCD":"Pbo","TRT01P":"Placebo","TRT01PN":null,"TRT01A":"Placebo","TRT01AN":null,"TRTP":"Placebo","TRTSDT":"2014-01-08","TRTEDT":"2014-01-26","TRTDURD":19,"AGE":84,"AGEU":"YEARS","AGEGR1":">80","AGEGR1N":3,"SEX":"F","RACE":"WHITE","ETHNIC":"NOT HISPANIC OR LATINO","WEIGHTBL":39.92,"HEIGHTBL":142.24,"BMIBL":19.7,"RANDFL":"Y","ITTFL":"Y","SAFFL":"Y","EFFFL":"N","COMPLFL":"N","EOSSTT":"DISCONTINUED","DCSREAS":"PHYSICIAN DECISION","EOSDT":"2014-02-07","DTHFL":null,"DTHDT":null,"DTHDY":null,"DTHCAUS":null},{"STUDYID":"CDISCPILOT01","USUBJID":"01-705-1199","SUBJID":"1199","SITEID":"705","SITEGR1":"900","COUNTRY":"USA","ARM":"Xanomeline Low Dose","ARMCD":"Xan_Lo","ACTARM":"Xanomeline Low Dose","ACTARMCD":"Xan_Lo","TRT01P":"Xanomeline Low Dose","TRT01PN":null,"TRT01A":"Xanomeline Low Dose","TRT01AN":null,"TRTP":"Xanomeline Low Dose","TRTSDT":"2013-09-16","TRTEDT":"2013-09-28","TRTDURD":13,"AGE":87,"AGEU":"YEARS","AGEGR1":">80","AGEGR1N":3,"SEX":"M","RACE":"WHITE","ETHNIC":"NOT HISPANIC OR LATINO","WEIGHTBL":64.41,"HEIGHTBL":161.29,"BMIBL":24.8,"RANDFL":"Y","ITTFL":"Y","SAFFL":"Y","EFFFL":"N","COMPLFL":"N","EOSSTT":"DISCONTINUED","DCSREAS":"ADVERSE EVENT","EOSDT":"2013-09-29","DTHFL":null,"DTHDT":null,"DTHDY":null,"DTHCAUS":null},{"STUDYID":"CDISCPILOT01","USUBJID":"01-705-1243","SUBJID":"1243","SITEID":"705","SITEGR1":"900","COUNTRY":"USA","ARM":"Screen Failure","ARMCD":"Scrnfail","ACTARM":"Screen Failure","ACTARMCD":"Scrnfail","TRT01P":"Screen Failure","TRT01PN":null,"TRT01A":"Screen Failure","TRT01AN":null,"TRTP":"Screen Failure","TRTSDT":null,"TRTEDT":null,"TRTDURD":null,"AGE":70,"AGEU":"YEARS","AGEGR1":"65-80","AGEGR1N":2,"SEX":"F","RACE":"WHITE","ETHNIC":"HISPANIC OR LATINO","WEIGHTBL":null,"HEIGHTBL":null,"BMIBL":null,"RANDFL":"Y","ITTFL":"Y","SAFFL":"N","EFFFL":"N","COMPLFL":"N","EOSSTT":"DISCONTINUED","DCSREAS":"SCREEN FAILURE","EOSDT":"2013-02-26","DTHFL":null,"DTHDT":null,"DTHDY":null,"DTHCAUS":null},{"STUDYID":"CDISCPILOT01","USUBJID":"01-705-1280","SUBJID":"1280","SITEID":"705","SITEGR1":"900","COUNTRY":"USA","ARM":"Xanomeline High Dose","ARMCD":"Xan_Hi","ACTARM":"Xanomeline High Dose","ACTARMCD":"Xan_Hi","TRT01P":"Xanomeline High Dose","TRT01PN":null,"TRT01A":"Xanomeline High Dose","TRT01AN":null,"TRTP":"Xanomeline High Dose","TRTSDT":"2014-01-17","TRTEDT":"2014-07-25","TRTDURD":190,"AGE":56,"AGEU":"YEARS","AGEGR1":"<65","AGEGR1N":1,"SEX":"F","RACE":"WHITE","ETHNIC":"NOT HISPANIC OR LATINO","WEIGHTBL":69.4,"HEIGHTBL":157.48,"BMIBL":28,"RANDFL":"Y","ITTFL":"Y","SAFFL":"Y","EFFFL":"N","COMPLFL":"Y","EOSSTT":"COMPLETED","DCSREAS":"COMPLETED","EOSDT":"2014-07-25","DTHFL":null,"DTHDT":null,"DTHDY":null,"DTHCAUS":null},{"STUDYID":"CDISCPILOT01","USUBJID":"01-705-1281","SUBJID":"1281","SITEID":"705","SITEGR1":"900","COUNTRY":"USA","ARM":"Xanomeline High Dose","ARMCD":"Xan_Hi","ACTARM":"Xanomeline High Dose","ACTARMCD":"Xan_Hi","TRT01P":"Xanomeline High Dose","TRT01PN":null,"TRT01A":"Xanomeline High Dose","TRT01AN":null,"TRTP":"Xanomeline High Dose","TRTSDT":"2013-11-28","TRTEDT":"2014-02-27","TRTDURD":92,"AGE":73,"AGEU":"YEARS","AGEGR1":"65-80","AGEGR1N":2,"SEX":"F","RACE":"BLACK OR AFRICAN AMERICAN","ETHNIC":"NOT HISPANIC OR LATINO","WEIGHTBL":73.03,"HEIGHTBL":152.4,"BMIBL":31.4,"RANDFL":"Y","ITTFL":"Y","SAFFL":"Y","EFFFL":"N","COMPLFL":"N","EOSSTT":"DISCONTINUED","DCSREAS":"ADVERSE EVENT","EOSDT":"2014-03-17","DTHFL":null,"DTHDT":null,"DTHDY":null,"DTHCAUS":null},{"STUDYID":"CDISCPILOT01","USUBJID":"01-705-1282","SUBJID":"1282","SITEID":"705","SITEGR1":"900","COUNTRY":"USA","ARM":"Placebo","ARMCD":"Pbo","ACTARM":"Placebo","ACTARMCD":"Pbo","TRT01P":"Placebo","TRT01PN":null,"TRT01A":"Placebo","TRT01AN":null,"TRTP":"Placebo","TRTSDT":"2012-12-26","TRTEDT":"2013-06-24","TRTDURD":181,"AGE":70,"AGEU":"YEARS","AGEGR1":"65-80","AGEGR1N":2,"SEX":"F","RACE":"BLACK OR AFRICAN AMERICAN","ETHNIC":"NOT HISPANIC OR LATINO","WEIGHTBL":73.03,"HEIGHTBL":154.94,"BMIBL":30.4,"RANDFL":"Y","ITTFL":"Y","SAFFL":"Y","EFFFL":"N","COMPLFL":"Y","EOSSTT":"COMPLETED","DCSREAS":"COMPLETED","EOSDT":"2013-06-24","DTHFL":null,"DTHDT":null,"DTHDY":null,"DTHCAUS":null},{"STUDYID":"CDISCPILOT01","USUBJID":"01-705-1292","SUBJID":"1292","SITEID":"705","SITEGR1":"900","COUNTRY":"USA","ARM":"Xanomeline Low Dose","ARMCD":"Xan_Lo","ACTARM":"Xanomeline Low Dose","ACTARMCD":"Xan_Lo","TRT01P":"Xanomeline Low Dose","TRT01PN":null,"TRT01A":"Xanomeline Low Dose","TRT01AN":null,"TRTP":"Xanomeline Low Dose","TRTSDT":"2013-10-14","TRTEDT":"2014-05-13","TRTDURD":212,"AGE":60,"AGEU":"YEARS","AGEGR1":"<65","AGEGR1N":1,"SEX":"F","RACE":"BLACK OR AFRICAN AMERICAN","ETHNIC":"NOT HISPANIC OR LATINO","WEIGHTBL":75.3,"HEIGHTBL":167.64,"BMIBL":26.8,"RANDFL":"Y","ITTFL":"Y","SAFFL":"Y","EFFFL":"N","COMPLFL":"Y","EOSSTT":"COMPLETED","DCSREAS":"COMPLETED","EOSDT":"2014-05-14","DTHFL":null,"DTHDT":null,"DTHDY":null,"DTHCAUS":null},{"STUDYID":"CDISCPILOT01","USUBJID":"01-705-1303","SUBJID":"1303","SITEID":"705","SITEGR1":"900","COUNTRY":"USA","ARM":"Xanomeline High Dose","ARMCD":"Xan_Hi","ACTARM":"Xanomeline High Dose","ACTARMCD":"Xan_Hi","TRT01P":"Xanomeline High Dose","TRT01PN":null,"TRT01A":"Xanomeline High Dose","TRT01AN":null,"TRTP":"Xanomeline High Dose","TRTSDT":"2013-12-16","TRTEDT":"2013-12-30","TRTDURD":15,"AGE":72,"AGEU":"YEARS","AGEGR1":"65-80","AGEGR1N":2,"SEX":"M","RACE":"WHITE","ETHNIC":"NOT HISPANIC OR LATINO","WEIGHTBL":84.37,"HEIGHTBL":175.26,"BMIBL":27.5,"RANDFL":"Y","ITTFL":"Y","SAFFL":"Y","EFFFL":"N","COMPLFL":"N","EOSSTT":"DISCONTINUED","DCSREAS":"ADVERSE EVENT","EOSDT":"2014-06-02","DTHFL":null,"DTHDT":null,"DTHDY":null,"DTHCAUS":null},{"STUDYID":"CDISCPILOT01","USUBJID":"01-705-1310","SUBJID":"1310","SITEID":"705","SITEGR1":"900","COUNTRY":"USA","ARM":"Xanomeline High Dose","ARMCD":"Xan_Hi","ACTARM":"Xanomeline High Dose","ACTARMCD":"Xan_Hi","TRT01P":"Xanomeline High Dose","TRT01PN":null,"TRT01A":"Xanomeline High Dose","TRT01AN":null,"TRTP":"Xanomeline High Dose","TRTSDT":"2013-11-02","TRTEDT":"2014-01-23","TRTDURD":83,"AGE":74,"AGEU":"YEARS","AGEGR1":"65-80","AGEGR1N":2,"SEX":"F","RACE":"WHITE","ETHNIC":"NOT HISPANIC OR LATINO","WEIGHTBL":48.54,"HEIGHTBL":146.05,"BMIBL":22.8,"RANDFL":"Y","ITTFL":"Y","SAFFL":"Y","EFFFL":"N","COMPLFL":"N","EOSSTT":"DISCONTINUED","DCSREAS":"ADVERSE EVENT","EOSDT":"2014-01-23","DTHFL":null,"DTHDT":null,"DTHDY":null,"DTHCAUS":null},{"STUDYID":"CDISCPILOT01","USUBJID":"01-705-1349","SUBJID":"1349","SITEID":"705","SITEGR1":"900","COUNTRY":"USA","ARM":"Placebo","ARMCD":"Pbo","ACTARM":"Placebo","ACTARMCD":"Pbo","TRT01P":"Placebo","TRT01PN":null,"TRT01A":"Placebo","TRT01AN":null,"TRTP":"Placebo","TRTSDT":"2013-03-10","TRTEDT":"2013-09-08","TRTDURD":183,"AGE":86,"AGEU":"YEARS","AGEGR1":">80","AGEGR1N":3,"SEX":"F","RACE":"WHITE","ETHNIC":"HISPANIC OR LATINO","WEIGHTBL":44.45,"HEIGHTBL":144.78,"BMIBL":21.2,"RANDFL":"Y","ITTFL":"Y","SAFFL":"Y","EFFFL":"N","COMPLFL":"Y","EOSSTT":"COMPLETED","DCSREAS":"COMPLETED","EOSDT":"2013-09-08","DTHFL":null,"DTHDT":null,"DTHDY":null,"DTHCAUS":null},{"STUDYID":"CDISCPILOT01","USUBJID":"01-705-1377","SUBJID":"1377","SITEID":"705","SITEGR1":"900","COUNTRY":"USA","ARM":"Xanomeline High Dose","ARMCD":"Xan_Hi","ACTARM":"Xanomeline High Dose","ACTARMCD":"Xan_Hi","TRT01P":"Xanomeline High Dose","TRT01PN":null,"TRT01A":"Xanomeline High Dose","TRT01AN":null,"TRTP":"Xanomeline High Dose","TRTSDT":"2014-01-04","TRTEDT":"2014-01-25","TRTDURD":22,"AGE":63,"AGEU":"YEARS","AGEGR1":"<65","AGEGR1N":1,"SEX":"F","RACE":"BLACK OR AFRICAN AMERICAN","ETHNIC":"NOT HISPANIC OR LATINO","WEIGHTBL":57.15,"HEIGHTBL":165.1,"BMIBL":21,"RANDFL":"Y","ITTFL":"Y","SAFFL":"Y","EFFFL":"N","COMPLFL":"N","EOSSTT":"DISCONTINUED","DCSREAS":"WITHDRAWAL BY SUBJECT","EOSDT":"2014-03-07","DTHFL":null,"DTHDT":null,"DTHDY":null,"DTHCAUS":null},{"STUDYID":"CDISCPILOT01","USUBJID":"01-705-1382","SUBJID":"1382","SITEID":"705","SITEGR1":"900","COUNTRY":"USA","ARM":"Xanomeline High Dose","ARMCD":"Xan_Hi","ACTARM":"Xanomeline Low Dose","ACTARMCD":"Xan_Lo","TRT01P":"Xanomeline High Dose","TRT01PN":null,"TRT01A":"Xanomeline Low Dose","TRT01AN":null,"TRTP":"Xanomeline High Dose","TRTSDT":"2013-05-13","TRTEDT":null,"TRTDURD":null,"AGE":82,"AGEU":"YEARS","AGEGR1":">80","AGEGR1N":3,"SEX":"M","RACE":"WHITE","ETHNIC":"NOT HISPANIC OR LATINO","WEIGHTBL":96.16,"HEIGHTBL":170.18,"BMIBL":33.2,"RANDFL":"Y","ITTFL":"Y","SAFFL":"Y","EFFFL":"N","COMPLFL":"N","EOSSTT":"DISCONTINUED","DCSREAS":"PROTOCOL VIOLATION","EOSDT":"2013-05-13","DTHFL":null,"DTHDT":null,"DTHDY":null,"DTHCAUS":null},{"STUDYID":"CDISCPILOT01","USUBJID":"01-705-1393","SUBJID":"1393","SITEID":"705","SITEGR1":"900","COUNTRY":"USA","ARM":"Xanomeline Low Dose","ARMCD":"Xan_Lo","ACTARM":"Xanomeline Low Dose","ACTARMCD":"Xan_Lo","TRT01P":"Xanomeline Low Dose","TRT01PN":null,"TRT01A":"Xanomeline Low Dose","TRT01AN":null,"TRTP":"Xanomeline Low Dose","TRTSDT":"2012-09-07","TRTEDT":"2013-02-01","TRTDURD":148,"AGE":84,"AGEU":"YEARS","AGEGR1":">80","AGEGR1N":3,"SEX":"F","RACE":"WHITE","ETHNIC":"NOT HISPANIC OR LATINO","WEIGHTBL":56.25,"HEIGHTBL":144.78,"BMIBL":26.8,"RANDFL":"Y","ITTFL":"Y","SAFFL":"Y","EFFFL":"N","COMPLFL":"N","EOSSTT":"DISCONTINUED","DCSREAS":"ADVERSE EVENT","EOSDT":"2013-02-20","DTHFL":null,"DTHDT":null,"DTHDY":null,"DTHCAUS":null},{"STUDYID":"CDISCPILOT01","USUBJID":"01-705-1421","SUBJID":"1421","SITEID":"705","SITEGR1":"900","COUNTRY":"USA","ARM":"Screen Failure","ARMCD":"Scrnfail","ACTARM":"Screen Failure","ACTARMCD":"Scrnfail","TRT01P":"Screen Failure","TRT01PN":null,"TRT01A":"Screen Failure","TRT01AN":null,"TRTP":"Screen Failure","TRTSDT":null,"TRTEDT":null,"TRTDURD":null,"AGE":87,"AGEU":"YEARS","AGEGR1":">80","AGEGR1N":3,"SEX":"M","RACE":"WHITE","ETHNIC":"NOT HISPANIC OR LATINO","WEIGHTBL":null,"HEIGHTBL":null,"BMIBL":null,"RANDFL":"Y","ITTFL":"Y","SAFFL":"N","EFFFL":"N","COMPLFL":"N","EOSSTT":"DISCONTINUED","DCSREAS":"SCREEN FAILURE","EOSDT":"2013-01-14","DTHFL":null,"DTHDT":null,"DTHDY":null,"DTHCAUS":null},{"STUDYID":"CDISCPILOT01","USUBJID":"01-705-1431","SUBJID":"1431","SITEID":"705","SITEGR1":"900","COUNTRY":"USA","ARM":"Xanomeline Low Dose","ARMCD":"Xan_Lo","ACTARM":"Xanomeline Low Dose","ACTARMCD":"Xan_Lo","TRT01P":"Xanomeline Low Dose","TRT01PN":null,"TRT01A":"Xanomeline Low Dose","TRT01AN":null,"TRTP":"Xanomeline Low Dose","TRTSDT":"2013-06-23","TRTEDT":"2013-12-19","TRTDURD":180,"AGE":68,"AGEU":"YEARS","AGEGR1":"65-80","AGEGR1N":2,"SEX":"F","RACE":"WHITE","ETHNIC":"HISPANIC OR LATINO","WEIGHTBL":54.43,"HEIGHTBL":149.86,"BMIBL":24.2,"RANDFL":"Y","ITTFL":"Y","SAFFL":"Y","EFFFL":"N","COMPLFL":"Y","EOSSTT":"COMPLETED","DCSREAS":"COMPLETED","EOSDT":"2013-12-19","DTHFL":null,"DTHDT":null,"DTHDY":null,"DTHCAUS":null},{"STUDYID":"CDISCPILOT01","USUBJID":"01-706-1041","SUBJID":"1041","SITEID":"706","SITEGR1":"900","COUNTRY":"USA","ARM":"Placebo","ARMCD":"Pbo","ACTARM":"Placebo","ACTARMCD":"Pbo","TRT01P":"Placebo","TRT01PN":null,"TRT01A":"Placebo","TRT01AN":null,"TRTP":"Placebo","TRTSDT":"2013-12-31","TRTEDT":"2014-07-28","TRTDURD":210,"AGE":64,"AGEU":"YEARS","AGEGR1":"<65","AGEGR1N":1,"SEX":"F","RACE":"BLACK OR AFRICAN AMERICAN","ETHNIC":"NOT HISPANIC OR LATINO","WEIGHTBL":58.74,"HEIGHTBL":167.64,"BMIBL":20.9,"RANDFL":"Y","ITTFL":"Y","SAFFL":"Y","EFFFL":"N","COMPLFL":"Y","EOSSTT":"COMPLETED","DCSREAS":"COMPLETED","EOSDT":"2014-07-29","DTHFL":null,"DTHDT":null,"DTHDY":null,"DTHCAUS":null},{"STUDYID":"CDISCPILOT01","USUBJID":"01-706-1049","SUBJID":"1049","SITEID":"706","SITEGR1":"900","COUNTRY":"USA","ARM":"Xanomeline High Dose","ARMCD":"Xan_Hi","ACTARM":"Xanomeline High Dose","ACTARMCD":"Xan_Hi","TRT01P":"Xanomeline High Dose","TRT01PN":null,"TRT01A":"Xanomeline High Dose","TRT01AN":null,"TRTP":"Xanomeline High Dose","TRTSDT":"2013-05-14","TRTEDT":"2013-06-18","TRTDURD":36,"AGE":60,"AGEU":"YEARS","AGEGR1":"<65","AGEGR1N":1,"SEX":"F","RACE":"WHITE","ETHNIC":"NOT HISPANIC OR LATINO","WEIGHTBL":57.83,"HEIGHTBL":167.64,"BMIBL":20.6,"RANDFL":"Y","ITTFL":"Y","SAFFL":"Y","EFFFL":"N","COMPLFL":"N","EOSSTT":"DISCONTINUED","DCSREAS":"ADVERSE EVENT","EOSDT":"2013-06-25","DTHFL":null,"DTHDT":null,"DTHDY":null,"DTHCAUS":null},{"STUDYID":"CDISCPILOT01","USUBJID":"01-706-1384","SUBJID":"1384","SITEID":"706","SITEGR1":"900","COUNTRY":"USA","ARM":"Xanomeline Low Dose","ARMCD":"Xan_Lo","ACTARM":"Xanomeline Low Dose","ACTARMCD":"Xan_Lo","TRT01P":"Xanomeline Low Dose","TRT01PN":null,"TRT01A":"Xanomeline Low Dose","TRT01AN":null,"TRTP":"Xanomeline Low Dose","TRTSDT":"2012-09-15","TRTEDT":"2012-09-24","TRTDURD":10,"AGE":74,"AGEU":"YEARS","AGEGR1":"65-80","AGEGR1N":2,"SEX":"F","RACE":"WHITE","ETHNIC":"NOT HISPANIC OR LATINO","WEIGHTBL":75.98,"HEIGHTBL":157.48,"BMIBL":30.6,"RANDFL":"Y","ITTFL":"Y","SAFFL":"Y","EFFFL":"N","COMPLFL":"N","EOSSTT":"DISCONTINUED","DCSREAS":"ADVERSE EVENT","EOSDT":"2012-09-29","DTHFL":null,"DTHDT":null,"DTHDY":null,"DTHCAUS":null},{"STUDYID":"CDISCPILOT01","USUBJID":"01-707-1037","SUBJID":"1037","SITEID":"707","SITEGR1":"900","COUNTRY":"USA","ARM":"Xanomeline Low Dose","ARMCD":"Xan_Lo","ACTARM":"Xanomeline Low Dose","ACTARMCD":"Xan_Lo","TRT01P":"Xanomeline Low Dose","TRT01PN":null,"TRT01A":"Xanomeline Low Dose","TRT01AN":null,"TRTP":"Xanomeline Low Dose","TRTSDT":"2013-12-20","TRTEDT":"2013-12-24","TRTDURD":5,"AGE":72,"AGEU":"YEARS","AGEGR1":"65-80","AGEGR1N":2,"SEX":"F","RACE":"WHITE","ETHNIC":"NOT HISPANIC OR LATINO","WEIGHTBL":55.34,"HEIGHTBL":152.4,"BMIBL":23.8,"RANDFL":"Y","ITTFL":"Y","SAFFL":"Y","EFFFL":"N","COMPLFL":"N","EOSSTT":"DISCONTINUED","DCSREAS":"WITHDRAWAL BY SUBJECT","EOSDT":"2014-01-08","DTHFL":null,"DTHDT":null,"DTHDY":null,"DTHCAUS":null},{"STUDYID":"CDISCPILOT01","USUBJID":"01-707-1206","SUBJID":"1206","SITEID":"707","SITEGR1":"900","COUNTRY":"USA","ARM":"Placebo","ARMCD":"Pbo","ACTARM":"Placebo","ACTARMCD":"Pbo","TRT01P":"Placebo","TRT01PN":null,"TRT01A":"Placebo","TRT01AN":null,"TRTP":"Placebo","TRTSDT":"2013-10-28","TRTEDT":"2014-04-26","TRTDURD":181,"AGE":65,"AGEU":"YEARS","AGEGR1":"65-80","AGEGR1N":2,"SEX":"M","RACE":"WHITE","ETHNIC":"NOT HISPANIC OR LATINO","WEIGHTBL":74.39,"HEIGHTBL":173.99,"BMIBL":24.6,"RANDFL":"Y","ITTFL":"Y","SAFFL":"Y","EFFFL":"N","COMPLFL":"Y","EOSSTT":"COMPLETED","DCSREAS":"COMPLETED","EOSDT":"2014-04-27","DTHFL":null,"DTHDT":null,"DTHDY":null,"DTHCAUS":null},{"STUDYID":"CDISCPILOT01","USUBJID":"01-707-1276","SUBJID":"1276","SITEID":"707","SITEGR1":"900","COUNTRY":"USA","ARM":"Screen Failure","ARMCD":"Scrnfail","ACTARM":"Screen Failure","ACTARMCD":"Scrnfail","TRT01P":"Screen Failure","TRT01PN":null,"TRT01A":"Screen Failure","TRT01AN":null,"TRTP":"Screen Failure","TRTSDT":null,"TRTEDT":null,"TRTDURD":null,"AGE":72,"AGEU":"YEARS","AGEGR1":"65-80","AGEGR1N":2,"SEX":"F","RACE":"WHITE","ETHNIC":"NOT HISPANIC OR LATINO","WEIGHTBL":null,"HEIGHTBL":null,"BMIBL":null,"RANDFL":"Y","ITTFL":"Y","SAFFL":"N","EFFFL":"N","COMPLFL":"N","EOSSTT":"DISCONTINUED","DCSREAS":"SCREEN FAILURE","EOSDT":"2012-10-12","DTHFL":null,"DTHDT":null,"DTHDY":null,"DTHCAUS":null},{"STUDYID":"CDISCPILOT01","USUBJID":"01-707-1430","SUBJID":"1430","SITEID":"707","SITEGR1":"900","COUNTRY":"USA","ARM":"Screen Failure","ARMCD":"Scrnfail","ACTARM":"Screen Failure","ACTARMCD":"Scrnfail","TRT01P":"Screen Failure","TRT01PN":null,"TRT01A":"Screen Failure","TRT01AN":null,"TRTP":"Screen Failure","TRTSDT":null,"TRTEDT":null,"TRTDURD":null,"AGE":81,"AGEU":"YEARS","AGEGR1":">80","AGEGR1N":3,"SEX":"F","RACE":"WHITE","ETHNIC":"NOT HISPANIC OR LATINO","WEIGHTBL":null,"HEIGHTBL":null,"BMIBL":null,"RANDFL":"Y","ITTFL":"Y","SAFFL":"N","EFFFL":"N","COMPLFL":"N","EOSSTT":"DISCONTINUED","DCSREAS":"SCREEN FAILURE","EOSDT":"2014-02-14","DTHFL":null,"DTHDT":null,"DTHDY":null,"DTHCAUS":null},{"STUDYID":"CDISCPILOT01","USUBJID":"01-707-1434","SUBJID":"1434","SITEID":"707","SITEGR1":"900","COUNTRY":"USA","ARM":"Screen Failure","ARMCD":"Scrnfail","ACTARM":"Screen Failure","ACTARMCD":"Scrnfail","TRT01P":"Screen Failure","TRT01PN":null,"TRT01A":"Screen Failure","TRT01AN":null,"TRTP":"Screen Failure","TRTSDT":null,"TRTEDT":null,"TRTDURD":null,"AGE":76,"AGEU":"YEARS","AGEGR1":"65-80","AGEGR1N":2,"SEX":"F","RACE":"WHITE","ETHNIC":"NOT HISPANIC OR LATINO","WEIGHTBL":null,"HEIGHTBL":null,"BMIBL":null,"RANDFL":"Y","ITTFL":"Y","SAFFL":"N","EFFFL":"N","COMPLFL":"N","EOSSTT":"DISCONTINUED","DCSREAS":"SCREEN FAILURE","EOSDT":"2013-07-25","DTHFL":null,"DTHDT":null,"DTHDY":null,"DTHCAUS":null},{"STUDYID":"CDISCPILOT01","USUBJID":"01-708-1013","SUBJID":"1013","SITEID":"708","SITEGR1":"900","COUNTRY":"USA","ARM":"Screen Failure","ARMCD":"Scrnfail","ACTARM":"Screen Failure","ACTARMCD":"Scrnfail","TRT01P":"Screen Failure","TRT01PN":null,"TRT01A":"Screen Failure","TRT01AN":null,"TRTP":"Screen Failure","TRTSDT":null,"TRTEDT":null,"TRTDURD":null,"AGE":80,"AGEU":"YEARS","AGEGR1":"65-80","AGEGR1N":2,"SEX":"M","RACE":"WHITE","ETHNIC":"NOT HISPANIC OR LATINO","WEIGHTBL":null,"HEIGHTBL":null,"BMIBL":null,"RANDFL":"Y","ITTFL":"Y","SAFFL":"N","EFFFL":"N","COMPLFL":"N","EOSSTT":"DISCONTINUED","DCSREAS":"SCREEN FAILURE","EOSDT":"2012-10-13","DTHFL":null,"DTHDT":null,"DTHDY":null,"DTHCAUS":null},{"STUDYID":"CDISCPILOT01","USUBJID":"01-708-1019","SUBJID":"1019","SITEID":"708","SITEGR1":"900","COUNTRY":"USA","ARM":"Xanomeline Low Dose","ARMCD":"Xan_Lo","ACTARM":"Xanomeline Low Dose","ACTARMCD":"Xan_Lo","TRT01P":"Xanomeline Low Dose","TRT01PN":null,"TRT01A":"Xanomeline Low Dose","TRT01AN":null,"TRTP":"Xanomeline Low Dose","TRTSDT":"2013-12-20","TRTEDT":"2014-01-01","TRTDURD":13,"AGE":68,"AGEU":"YEARS","AGEGR1":"65-80","AGEGR1N":2,"SEX":"M","RACE":"WHITE","ETHNIC":"NOT HISPANIC OR LATINO","WEIGHTBL":74.39,"HEIGHTBL":182.88,"BMIBL":22.2,"RANDFL":"Y","ITTFL":"Y","SAFFL":"Y","EFFFL":"N","COMPLFL":"N","EOSSTT":"DISCONTINUED","DCSREAS":"ADVERSE EVENT","EOSDT":"2014-01-23","DTHFL":null,"DTHDT":null,"DTHDY":null,"DTHCAUS":null},{"STUDYID":"CDISCPILOT01","USUBJID":"01-708-1032","SUBJID":"1032","SITEID":"708","SITEGR1":"900","COUNTRY":"USA","ARM":"Xanomeline Low Dose","ARMCD":"Xan_Lo","ACTARM":"Xanomeline Low Dose","ACTARMCD":"Xan_Lo","TRT01P":"Xanomeline Low Dose","TRT01PN":null,"TRT01A":"Xanomeline Low Dose","TRT01AN":null,"TRTP":"Xanomeline Low Dose","TRTSDT":"2013-02-09","TRTEDT":"2013-03-01","TRTDURD":21,"AGE":62,"AGEU":"YEARS","AGEGR1":"<65","AGEGR1N":1,"SEX":"M","RACE":"WHITE","ETHNIC":"NOT HISPANIC OR LATINO","WEIGHTBL":82.56,"HEIGHTBL":177.8,"BMIBL":26.1,"RANDFL":"Y","ITTFL":"Y","SAFFL":"Y","EFFFL":"N","COMPLFL":"N","EOSSTT":"DISCONTINUED","DCSREAS":"ADVERSE EVENT","EOSDT":"2013-03-09","DTHFL":null,"DTHDT":null,"DTHDY":null,"DTHCAUS":null},{"STUDYID":"CDISCPILOT01","USUBJID":"01-708-1054","SUBJID":"1054","SITEID":"708","SITEGR1":"900","COUNTRY":"USA","ARM":"Screen Failure","ARMCD":"Scrnfail","ACTARM":"Screen Failure","ACTARMCD":"Scrnfail","TRT01P":"Screen Failure","TRT01PN":null,"TRT01A":"Screen Failure","TRT01AN":null,"TRTP":"Screen Failure","TRTSDT":null,"TRTEDT":null,"TRTDURD":null,"AGE":73,"AGEU":"YEARS","AGEGR1":"65-80","AGEGR1N":2,"SEX":"F","RACE":"BLACK OR AFRICAN AMERICAN","ETHNIC":"NOT HISPANIC OR LATINO","WEIGHTBL":null,"HEIGHTBL":null,"BMIBL":null,"RANDFL":"Y","ITTFL":"Y","SAFFL":"N","EFFFL":"N","COMPLFL":"N","EOSSTT":"DISCONTINUED","DCSREAS":"SCREEN FAILURE","EOSDT":"2014-02-14","DTHFL":null,"DTHDT":null,"DTHDY":null,"DTHCAUS":null},{"STUDYID":"CDISCPILOT01","USUBJID":"01-708-1067","SUBJID":"1067","SITEID":"708","SITEGR1":"900","COUNTRY":"USA","ARM":"Screen Failure","ARMCD":"Scrnfail","ACTARM":"Screen Failure","ACTARMCD":"Scrnfail","TRT01P":"Screen Failure","TRT01PN":null,"TRT01A":"Screen Failure","TRT01AN":null,"TRTP":"Screen Failure","TRTSDT":null,"TRTEDT":null,"TRTDURD":null,"AGE":88,"AGEU":"YEARS","AGEGR1":">80","AGEGR1N":3,"SEX":"M","RACE":"WHITE","ETHNIC":"NOT HISPANIC OR LATINO","WEIGHTBL":null,"HEIGHTBL":null,"BMIBL":null,"RANDFL":"Y","ITTFL":"Y","SAFFL":"N","EFFFL":"N","COMPLFL":"N","EOSSTT":"DISCONTINUED","DCSREAS":"SCREEN FAILURE","EOSDT":"2013-02-07","DTHFL":null,"DTHDT":null,"DTHDY":null,"DTHCAUS":null},{"STUDYID":"CDISCPILOT01","USUBJID":"01-708-1084","SUBJID":"1084","SITEID":"708","SITEGR1":"900","COUNTRY":"USA","ARM":"Xanomeline Low Dose","ARMCD":"Xan_Lo","ACTARM":"Xanomeline Low Dose","ACTARMCD":"Xan_Lo","TRT01P":"Xanomeline Low Dose","TRT01PN":null,"TRT01A":"Xanomeline Low Dose","TRT01AN":null,"TRTP":"Xanomeline Low Dose","TRTSDT":"2013-05-09","TRTEDT":"2013-11-11","TRTDURD":187,"AGE":73,"AGEU":"YEARS","AGEGR1":"65-80","AGEGR1N":2,"SEX":"F","RACE":"WHITE","ETHNIC":"NOT HISPANIC OR LATINO","WEIGHTBL":50.35,"HEIGHTBL":167.64,"BMIBL":17.9,"RANDFL":"Y","ITTFL":"Y","SAFFL":"Y","EFFFL":"N","COMPLFL":"Y","EOSSTT":"COMPLETED","DCSREAS":"COMPLETED","EOSDT":"2013-11-11","DTHFL":null,"DTHDT":null,"DTHDY":null,"DTHCAUS":null},{"STUDYID":"CDISCPILOT01","USUBJID":"01-708-1087","SUBJID":"1087","SITEID":"708","SITEGR1":"900","COUNTRY":"USA","ARM":"Placebo","ARMCD":"Pbo","ACTARM":"Placebo","ACTARMCD":"Pbo","TRT01P":"Placebo","TRT01PN":null,"TRT01A":"Placebo","TRT01AN":null,"TRTP":"Placebo","TRTSDT":"2012-10-22","TRTEDT":"2013-04-28","TRTDURD":189,"AGE":74,"AGEU":"YEARS","AGEGR1":"65-80","AGEGR1N":2,"SEX":"F","RACE":"WHITE","ETHNIC":"NOT HISPANIC OR LATINO","WEIGHTBL":66.68,"HEIGHTBL":157.48,"BMIBL":26.9,"RANDFL":"Y","ITTFL":"Y","SAFFL":"Y","EFFFL":"N","COMPLFL":"Y","EOSSTT":"COMPLETED","DCSREAS":"COMPLETED","EOSDT":"2013-04-28","DTHFL":null,"DTHDT":null,"DTHDY":null,"DTHCAUS":null},{"STUDYID":"CDISCPILOT01","USUBJID":"01-708-1104","SUBJID":"1104","SITEID":"708","SITEGR1":"900","COUNTRY":"USA","ARM":"Screen Failure","ARMCD":"Scrnfail","ACTARM":"Screen Failure","ACTARMCD":"Scrnfail","TRT01P":"Screen Failure","TRT01PN":null,"TRT01A":"Screen Failure","TRT01AN":null,"TRTP":"Screen Failure","TRTSDT":null,"TRTEDT":null,"TRTDURD":null,"AGE":78,"AGEU":"YEARS","AGEGR1":"65-80","AGEGR1N":2,"SEX":"F","RACE":"ASIAN","ETHNIC":"NOT HISPANIC OR LATINO","WEIGHTBL":null,"HEIGHTBL":null,"BMIBL":null,"RANDFL":"Y","ITTFL":"Y","SAFFL":"N","EFFFL":"N","COMPLFL":"N","EOSSTT":"DISCONTINUED","DCSREAS":"SCREEN FAILURE","EOSDT":"2014-01-23","DTHFL":null,"DTHDT":null,"DTHDY":null,"DTHCAUS":null},{"STUDYID":"CDISCPILOT01","USUBJID":"01-708-1158","SUBJID":"1158","SITEID":"708","SITEGR1":"900","COUNTRY":"USA","ARM":"Placebo","ARMCD":"Pbo","ACTARM":"Placebo","ACTARMCD":"Pbo","TRT01P":"Placebo","TRT01PN":null,"TRT01A":"Placebo","TRT01AN":null,"TRTP":"Placebo","TRTSDT":"2014-02-08","TRTEDT":"2014-03-21","TRTDURD":42,"AGE":81,"AGEU":"YEARS","AGEGR1":">80","AGEGR1N":3,"SEX":"F","RACE":"WHITE","ETHNIC":"NOT HISPANIC OR LATINO","WEIGHTBL":73.48,"HEIGHTBL":162.56,"BMIBL":27.8,"RANDFL":"Y","ITTFL":"Y","SAFFL":"Y","EFFFL":"N","COMPLFL":"N","EOSSTT":"DISCONTINUED","DCSREAS":"ADVERSE EVENT","EOSDT":"2014-03-22","DTHFL":null,"DTHDT":null,"DTHDY":null,"DTHCAUS":null},{"STUDYID":"CDISCPILOT01","USUBJID":"01-708-1171","SUBJID":"1171","SITEID":"708","SITEGR1":"900","COUNTRY":"USA","ARM":"Placebo","ARMCD":"Pbo","ACTARM":"Placebo","ACTARMCD":"Pbo","TRT01P":"Placebo","TRT01PN":null,"TRT01A":"Placebo","TRT01AN":null,"TRTP":"Placebo","TRTSDT":"2012-12-06","TRTEDT":"2013-06-04","TRTDURD":181,"AGE":77,"AGEU":"YEARS","AGEGR1":"65-80","AGEGR1N":2,"SEX":"F","RACE":"WHITE","ETHNIC":"NOT HISPANIC OR LATINO","WEIGHTBL":54.89,"HEIGHTBL":162.56,"BMIBL":20.8,"RANDFL":"Y","ITTFL":"Y","SAFFL":"Y","EFFFL":"N","COMPLFL":"Y","EOSSTT":"COMPLETED","DCSREAS":"COMPLETED","EOSDT":"2013-06-04","DTHFL":null,"DTHDT":null,"DTHDY":null,"DTHCAUS":null},{"STUDYID":"CDISCPILOT01","USUBJID":"01-708-1178","SUBJID":"1178","SITEID":"708","SITEGR1":"900","COUNTRY":"USA","ARM":"Xanomeline High Dose","ARMCD":"Xan_Hi","ACTARM":"Xanomeline High Dose","ACTARMCD":"Xan_Hi","TRT01P":"Xanomeline High Dose","TRT01PN":null,"TRT01A":"Xanomeline High Dose","TRT01AN":null,"TRTP":"Xanomeline High Dose","TRTSDT":"2013-12-29","TRTEDT":"2014-04-06","TRTDURD":99,"AGE":77,"AGEU":"YEARS","AGEGR1":"65-80","AGEGR1N":2,"SEX":"F","RACE":"BLACK OR AFRICAN AMERICAN","ETHNIC":"NOT HISPANIC OR LATINO","WEIGHTBL":62.82,"HEIGHTBL":165.1,"BMIBL":23,"RANDFL":"Y","ITTFL":"Y","SAFFL":"Y","EFFFL":"N","COMPLFL":"N","EOSSTT":"DISCONTINUED","DCSREAS":"PHYSICIAN DECISION","EOSDT":"2014-04-06","DTHFL":null,"DTHDT":null,"DTHDY":null,"DTHCAUS":null},{"STUDYID":"CDISCPILOT01","USUBJID":"01-708-1184","SUBJID":"1184","SITEID":"708","SITEGR1":"900","COUNTRY":"USA","ARM":"Screen Failure","ARMCD":"Scrnfail","ACTARM":"Screen Failure","ACTARMCD":"Scrnfail","TRT01P":"Screen Failure","TRT01PN":null,"TRT01A":"Screen Failure","TRT01AN":null,"TRTP":"Screen Failure","TRTSDT":null,"TRTEDT":null,"TRTDURD":null,"AGE":70,"AGEU":"YEARS","AGEGR1":"65-80","AGEGR1N":2,"SEX":"F","RACE":"WHITE","ETHNIC":"NOT HISPANIC OR LATINO","WEIGHTBL":null,"HEIGHTBL":null,"BMIBL":null,"RANDFL":"Y","ITTFL":"Y","SAFFL":"N","EFFFL":"N","COMPLFL":"N","EOSSTT":"DISCONTINUED","DCSREAS":"SCREEN FAILURE","EOSDT":"2013-01-14","DTHFL":null,"DTHDT":null,"DTHDY":null,"DTHCAUS":null},{"STUDYID":"CDISCPILOT01","USUBJID":"01-708-1213","SUBJID":"1213","SITEID":"708","SITEGR1":"900","COUNTRY":"USA","ARM":"Xanomeline High Dose","ARMCD":"Xan_Hi","ACTARM":"Xanomeline Low Dose","ACTARMCD":"Xan_Lo","TRT01P":"Xanomeline High Dose","TRT01PN":null,"TRT01A":"Xanomeline Low Dose","TRT01AN":null,"TRTP":"Xanomeline High Dose","TRTSDT":"2013-02-09","TRTEDT":"2013-02-22","TRTDURD":14,"AGE":76,"AGEU":"YEARS","AGEGR1":"65-80","AGEGR1N":2,"SEX":"F","RACE":"WHITE","ETHNIC":"NOT HISPANIC OR LATINO","WEIGHTBL":41.73,"HEIGHTBL":165.1,"BMIBL":15.3,"RANDFL":"Y","ITTFL":"Y","SAFFL":"Y","EFFFL":"N","COMPLFL":"N","EOSSTT":"DISCONTINUED","DCSREAS":"ADVERSE EVENT","EOSDT":"2013-02-26","DTHFL":null,"DTHDT":null,"DTHDY":null,"DTHCAUS":null},{"STUDYID":"CDISCPILOT01","USUBJID":"01-708-1216","SUBJID":"1216","SITEID":"708","SITEGR1":"900","COUNTRY":"USA","ARM":"Xanomeline High Dose","ARMCD":"Xan_Hi","ACTARM":"Xanomeline High Dose","ACTARMCD":"Xan_Hi","TRT01P":"Xanomeline High Dose","TRT01PN":null,"TRT01A":"Xanomeline High Dose","TRT01AN":null,"TRTP":"Xanomeline High Dose","TRTSDT":"2012-10-24","TRTEDT":"2012-11-29","TRTDURD":37,"AGE":78,"AGEU":"YEARS","AGEGR1":"65-80","AGEGR1N":2,"SEX":"M","RACE":"WHITE","ETHNIC":"NOT HISPANIC OR LATINO","WEIGHTBL":77.11,"HEIGHTBL":172.72,"BMIBL":25.8,"RANDFL":"Y","ITTFL":"Y","SAFFL":"Y","EFFFL":"N","COMPLFL":"N","EOSSTT":"DISCONTINUED","DCSREAS":"ADVERSE EVENT","EOSDT":"2012-12-06","DTHFL":null,"DTHDT":null,"DTHDY":null,"DTHCAUS":null},{"STUDYID":"CDISCPILOT01","USUBJID":"01-708-1236","SUBJID":"1236","SITEID":"708","SITEGR1":"900","COUNTRY":"USA","ARM":"Xanomeline High Dose","ARMCD":"Xan_Hi","ACTARM":"Xanomeline Low Dose","ACTARMCD":"Xan_Lo","TRT01P":"Xanomeline High Dose","TRT01PN":null,"TRT01A":"Xanomeline Low Dose","TRT01AN":null,"TRTP":"Xanomeline High Dose","TRTSDT":"2013-09-21","TRTEDT":"2013-09-21","TRTDURD":1,"AGE":86,"AGEU":"YEARS","AGEGR1":">80","AGEGR1N":3,"SEX":"F","RACE":"WHITE","ETHNIC":"NOT HISPANIC OR LATINO","WEIGHTBL":54.43,"HEIGHTBL":152.4,"BMIBL":23.4,"RANDFL":"Y","ITTFL":"Y","SAFFL":"Y","EFFFL":"N","COMPLFL":"N","EOSSTT":"DISCONTINUED","DCSREAS":"WITHDRAWAL BY SUBJECT","EOSDT":"2013-09-26","DTHFL":null,"DTHDT":null,"DTHDY":null,"DTHCAUS":null},{"STUDYID":"CDISCPILOT01","USUBJID":"01-708-1242","SUBJID":"1242","SITEID":"708","SITEGR1":"900","COUNTRY":"USA","ARM":"Screen Failure","ARMCD":"Scrnfail","ACTARM":"Screen Failure","ACTARMCD":"Scrnfail","TRT01P":"Screen Failure","TRT01PN":null,"TRT01A":"Screen Failure","TRT01AN":null,"TRTP":"Screen Failure","TRTSDT":null,"TRTEDT":null,"TRTDURD":null,"AGE":80,"AGEU":"YEARS","AGEGR1":"65-80","AGEGR1N":2,"SEX":"M","RACE":"WHITE","ETHNIC":"NOT HISPANIC OR LATINO","WEIGHTBL":null,"HEIGHTBL":null,"BMIBL":null,"RANDFL":"Y","ITTFL":"Y","SAFFL":"N","EFFFL":"N","COMPLFL":"N","EOSSTT":"DISCONTINUED","DCSREAS":"SCREEN FAILURE","EOSDT":"2012-08-13","DTHFL":null,"DTHDT":null,"DTHDY":null,"DTHCAUS":null},{"STUDYID":"CDISCPILOT01","USUBJID":"01-708-1253","SUBJID":"1253","SITEID":"708","SITEGR1":"900","COUNTRY":"USA","ARM":"Placebo","ARMCD":"Pbo","ACTARM":"Placebo","ACTARMCD":"Pbo","TRT01P":"Placebo","TRT01PN":null,"TRT01A":"Placebo","TRT01AN":null,"TRTP":"Placebo","TRTSDT":"2013-05-07","TRTEDT":"2013-11-05","TRTDURD":183,"AGE":61,"AGEU":"YEARS","AGEGR1":"<65","AGEGR1N":1,"SEX":"M","RACE":"WHITE","ETHNIC":"NOT HISPANIC OR LATINO","WEIGHTBL":75.75,"HEIGHTBL":185.42,"BMIBL":22,"RANDFL":"Y","ITTFL":"Y","SAFFL":"Y","EFFFL":"N","COMPLFL":"Y","EOSSTT":"COMPLETED","DCSREAS":"COMPLETED","EOSDT":"2013-11-05","DTHFL":null,"DTHDT":null,"DTHDY":null,"DTHCAUS":null},{"STUDYID":"CDISCPILOT01","USUBJID":"01-708-1272","SUBJID":"1272","SITEID":"708","SITEGR1":"900","COUNTRY":"USA","ARM":"Xanomeline Low Dose","ARMCD":"Xan_Lo","ACTARM":"Xanomeline Low Dose","ACTARMCD":"Xan_Lo","TRT01P":"Xanomeline Low Dose","TRT01PN":null,"TRT01A":"Xanomeline Low Dose","TRT01AN":null,"TRTP":"Xanomeline Low Dose","TRTSDT":"2013-02-06","TRTEDT":"2013-03-22","TRTDURD":45,"AGE":82,"AGEU":"YEARS","AGEGR1":">80","AGEGR1N":3,"SEX":"M","RACE":"WHITE","ETHNIC":"NOT HISPANIC OR LATINO","WEIGHTBL":74.39,"HEIGHTBL":172.72,"BMIBL":24.9,"RANDFL":"Y","ITTFL":"Y","SAFFL":"Y","EFFFL":"N","COMPLFL":"N","EOSSTT":"DISCONTINUED","DCSREAS":"WITHDRAWAL BY SUBJECT","EOSDT":"2013-04-04","DTHFL":null,"DTHDT":null,"DTHDY":null,"DTHCAUS":null},{"STUDYID":"CDISCPILOT01","USUBJID":"01-708-1286","SUBJID":"1286","SITEID":"708","SITEGR1":"900","COUNTRY":"USA","ARM":"Placebo","ARMCD":"Pbo","ACTARM":"Placebo","ACTARMCD":"Pbo","TRT01P":"Placebo","TRT01PN":null,"TRT01A":"Placebo","TRT01AN":null,"TRTP":"Placebo","TRTSDT":"2013-09-10","TRTEDT":"2014-03-08","TRTDURD":180,"AGE":80,"AGEU":"YEARS","AGEGR1":"65-80","AGEGR1N":2,"SEX":"F","RACE":"BLACK OR AFRICAN AMERICAN","ETHNIC":"NOT HISPANIC OR LATINO","WEIGHTBL":76.2,"HEIGHTBL":152.4,"BMIBL":32.8,"RANDFL":"Y","ITTFL":"Y","SAFFL":"Y","EFFFL":"N","COMPLFL":"Y","EOSSTT":"COMPLETED","DCSREAS":"COMPLETED","EOSDT":"2014-03-08","DTHFL":null,"DTHDT":null,"DTHDY":null,"DTHCAUS":null},{"STUDYID":"CDISCPILOT01","USUBJID":"01-708-1296","SUBJID":"1296","SITEID":"708","SITEGR1":"900","COUNTRY":"USA","ARM":"Placebo","ARMCD":"Pbo","ACTARM":"Placebo","ACTARMCD":"Pbo","TRT01P":"Placebo","TRT01PN":null,"TRT01A":"Placebo","TRT01AN":null,"TRTP":"Placebo","TRTSDT":"2013-06-14","TRTEDT":"2013-12-12","TRTDURD":182,"AGE":57,"AGEU":"YEARS","AGEGR1":"<65","AGEGR1N":1,"SEX":"M","RACE":"BLACK OR AFRICAN AMERICAN","ETHNIC":"NOT HISPANIC OR LATINO","WEIGHTBL":80.74,"HEIGHTBL":170.18,"BMIBL":27.9,"RANDFL":"Y","ITTFL":"Y","SAFFL":"Y","EFFFL":"N","COMPLFL":"Y","EOSSTT":"COMPLETED","DCSREAS":"COMPLETED","EOSDT":"2013-12-12","DTHFL":null,"DTHDT":null,"DTHDY":null,"DTHCAUS":null},{"STUDYID":"CDISCPILOT01","USUBJID":"01-708-1297","SUBJID":"1297","SITEID":"708","SITEGR1":"900","COUNTRY":"USA","ARM":"Xanomeline Low Dose","ARMCD":"Xan_Lo","ACTARM":"Xanomeline Low Dose","ACTARMCD":"Xan_Lo","TRT01P":"Xanomeline Low Dose","TRT01PN":null,"TRT01A":"Xanomeline Low Dose","TRT01AN":null,"TRTP":"Xanomeline Low Dose","TRTSDT":"2013-01-25","TRTEDT":"2013-05-03","TRTDURD":99,"AGE":61,"AGEU":"YEARS","AGEGR1":"<65","AGEGR1N":1,"SEX":"M","RACE":"WHITE","ETHNIC":"NOT HISPANIC OR LATINO","WEIGHTBL":78.93,"HEIGHTBL":185.42,"BMIBL":23,"RANDFL":"Y","ITTFL":"Y","SAFFL":"Y","EFFFL":"N","COMPLFL":"N","EOSSTT":"DISCONTINUED","DCSREAS":"ADVERSE EVENT","EOSDT":"2013-05-08","DTHFL":null,"DTHDT":null,"DTHDY":null,"DTHCAUS":null},{"STUDYID":"CDISCPILOT01","USUBJID":"01-708-1316","SUBJID":"1316","SITEID":"708","SITEGR1":"900","COUNTRY":"USA","ARM":"Placebo","ARMCD":"Pbo","ACTARM":"Placebo","ACTARMCD":"Pbo","TRT01P":"Placebo","TRT01PN":null,"TRT01A":"Placebo","TRT01AN":null,"TRTP":"Placebo","TRTSDT":"2013-08-23","TRTEDT":"2014-03-01","TRTDURD":191,"AGE":74,"AGEU":"YEARS","AGEGR1":"65-80","AGEGR1N":2,"SEX":"F","RACE":"WHITE","ETHNIC":"NOT HISPANIC OR LATINO","WEIGHTBL":59.88,"HEIGHTBL":160.02,"BMIBL":23.4,"RANDFL":"Y","ITTFL":"Y","SAFFL":"Y","EFFFL":"N","COMPLFL":"Y","EOSSTT":"COMPLETED","DCSREAS":"COMPLETED","EOSDT":"2014-03-01","DTHFL":null,"DTHDT":null,"DTHDY":null,"DTHCAUS":null},{"STUDYID":"CDISCPILOT01","USUBJID":"01-708-1336","SUBJID":"1336","SITEID":"708","SITEGR1":"900","COUNTRY":"USA","ARM":"Xanomeline High Dose","ARMCD":"Xan_Hi","ACTARM":"Xanomeline High Dose","ACTARMCD":"Xan_Hi","TRT01P":"Xanomeline High Dose","TRT01PN":null,"TRT01A":"Xanomeline High Dose","TRT01AN":null,"TRTP":"Xanomeline High Dose","TRTSDT":"2012-12-07","TRTEDT":"2013-06-05","TRTDURD":181,"AGE":73,"AGEU":"YEARS","AGEGR1":"65-80","AGEGR1N":2,"SEX":"M","RACE":"WHITE","ETHNIC":"NOT HISPANIC OR LATINO","WEIGHTBL":87.54,"HEIGHTBL":190.5,"BMIBL":24.1,"RANDFL":"Y","ITTFL":"Y","SAFFL":"Y","EFFFL":"N","COMPLFL":"Y","EOSSTT":"COMPLETED","DCSREAS":"COMPLETED","EOSDT":"2013-06-05","DTHFL":null,"DTHDT":null,"DTHDY":null,"DTHCAUS":null},{"STUDYID":"CDISCPILOT01","USUBJID":"01-708-1342","SUBJID":"1342","SITEID":"708","SITEGR1":"900","COUNTRY":"USA","ARM":"Placebo","ARMCD":"Pbo","ACTARM":"Placebo","ACTARMCD":"Pbo","TRT01P":"Placebo","TRT01PN":null,"TRT01A":"Placebo","TRT01AN":null,"TRTP":"Placebo","TRTSDT":"2012-12-29","TRTEDT":"2013-06-28","TRTDURD":182,"AGE":59,"AGEU":"YEARS","AGEGR1":"<65","AGEGR1N":1,"SEX":"F","RACE":"WHITE","ETHNIC":"NOT HISPANIC OR LATINO","WEIGHTBL":58.97,"HEIGHTBL":170.18,"BMIBL":20.4,"RANDFL":"Y","ITTFL":"Y","SAFFL":"Y","EFFFL":"N","COMPLFL":"Y","EOSSTT":"COMPLETED","DCSREAS":"COMPLETED","EOSDT":"2013-06-28","DTHFL":null,"DTHDT":null,"DTHDY":null,"DTHCAUS":null},{"STUDYID":"CDISCPILOT01","USUBJID":"01-708-1347","SUBJID":"1347","SITEID":"708","SITEGR1":"900","COUNTRY":"USA","ARM":"Xanomeline High Dose","ARMCD":"Xan_Hi","ACTARM":"Xanomeline High Dose","ACTARMCD":"Xan_Hi","TRT01P":"Xanomeline High Dose","TRT01PN":null,"TRT01A":"Xanomeline High Dose","TRT01AN":null,"TRTP":"Xanomeline High Dose","TRTSDT":"2013-04-20","TRTEDT":"2013-06-18","TRTDURD":60,"AGE":61,"AGEU":"YEARS","AGEGR1":"<65","AGEGR1N":1,"SEX":"F","RACE":"WHITE","ETHNIC":"NOT HISPANIC OR LATINO","WEIGHTBL":74.84,"HEIGHTBL":160.02,"BMIBL":29.2,"RANDFL":"Y","ITTFL":"Y","SAFFL":"Y","EFFFL":"N","COMPLFL":"N","EOSSTT":"DISCONTINUED","DCSREAS":"ADVERSE EVENT","EOSDT":"2013-06-18","DTHFL":null,"DTHDT":null,"DTHDY":null,"DTHCAUS":null},{"STUDYID":"CDISCPILOT01","USUBJID":"01-708-1348","SUBJID":"1348","SITEID":"708","SITEGR1":"900","COUNTRY":"USA","ARM":"Xanomeline Low Dose","ARMCD":"Xan_Lo","ACTARM":"Xanomeline Low Dose","ACTARMCD":"Xan_Lo","TRT01P":"Xanomeline Low Dose","TRT01PN":null,"TRT01A":"Xanomeline Low Dose","TRT01AN":null,"TRTP":"Xanomeline Low Dose","TRTSDT":"2013-08-05","TRTEDT":"2014-02-13","TRTDURD":193,"AGE":79,"AGEU":"YEARS","AGEGR1":"65-80","AGEGR1N":2,"SEX":"F","RACE":"WHITE","ETHNIC":"NOT HISPANIC OR LATINO","WEIGHTBL":60.33,"HEIGHTBL":160.02,"BMIBL":23.6,"RANDFL":"Y","ITTFL":"Y","SAFFL":"Y","EFFFL":"N","COMPLFL":"Y","EOSSTT":"COMPLETED","DCSREAS":"COMPLETED","EOSDT":"2014-02-13","DTHFL":null,"DTHDT":null,"DTHDY":null,"DTHCAUS":null},{"STUDYID":"CDISCPILOT01","USUBJID":"01-708-1352","SUBJID":"1352","SITEID":"708","SITEGR1":"900","COUNTRY":"USA","ARM":"Screen Failure","ARMCD":"Scrnfail","ACTARM":"Screen Failure","ACTARMCD":"Scrnfail","TRT01P":"Screen Failure","TRT01PN":null,"TRT01A":"Screen Failure","TRT01AN":null,"TRTP":"Screen Failure","TRTSDT":null,"TRTEDT":null,"TRTDURD":null,"AGE":87,"AGEU":"YEARS","AGEGR1":">80","AGEGR1N":3,"SEX":"F","RACE":"WHITE","ETHNIC":"NOT HISPANIC OR LATINO","WEIGHTBL":null,"HEIGHTBL":null,"BMIBL":null,"RANDFL":"Y","ITTFL":"Y","SAFFL":"N","EFFFL":"N","COMPLFL":"N","EOSSTT":"DISCONTINUED","DCSREAS":"SCREEN FAILURE","EOSDT":"2013-09-16","DTHFL":null,"DTHDT":null,"DTHDY":null,"DTHCAUS":null},{"STUDYID":"CDISCPILOT01","USUBJID":"01-708-1353","SUBJID":"1353","SITEID":"708","SITEGR1":"900","COUNTRY":"USA","ARM":"Xanomeline Low Dose","ARMCD":"Xan_Lo","ACTARM":"Xanomeline Low Dose","ACTARMCD":"Xan_Lo","TRT01P":"Xanomeline Low Dose","TRT01PN":null,"TRT01A":"Xanomeline Low Dose","TRT01AN":null,"TRTP":"Xanomeline Low Dose","TRTSDT":"2013-07-04","TRTEDT":"2013-08-28","TRTDURD":56,"AGE":87,"AGEU":"YEARS","AGEGR1":">80","AGEGR1N":3,"SEX":"F","RACE":"BLACK OR AFRICAN AMERICAN","ETHNIC":"NOT HISPANIC OR LATINO","WEIGHTBL":50.35,"HEIGHTBL":157.48,"BMIBL":20.3,"RANDFL":"Y","ITTFL":"Y","SAFFL":"Y","EFFFL":"N","COMPLFL":"N","EOSSTT":"DISCONTINUED","DCSREAS":"ADVERSE EVENT","EOSDT":"2013-09-10","DTHFL":null,"DTHDT":null,"DTHDY":null,"DTHCAUS":null},{"STUDYID":"CDISCPILOT01","USUBJID":"01-708-1372","SUBJID":"1372","SITEID":"708","SITEGR1":"900","COUNTRY":"USA","ARM":"Xanomeline High Dose","ARMCD":"Xan_Hi","ACTARM":"Xanomeline Low Dose","ACTARMCD":"Xan_Lo","TRT01P":"Xanomeline High Dose","TRT01PN":null,"TRT01A":"Xanomeline Low Dose","TRT01AN":null,"TRTP":"Xanomeline High Dose","TRTSDT":"2013-04-12","TRTEDT":"2013-04-19","TRTDURD":8,"AGE":84,"AGEU":"YEARS","AGEGR1":">80","AGEGR1N":3,"SEX":"M","RACE":"WHITE","ETHNIC":"NOT HISPANIC OR LATINO","WEIGHTBL":88.91,"HEIGHTBL":170.18,"BMIBL":30.7,"RANDFL":"Y","ITTFL":"Y","SAFFL":"Y","EFFFL":"N","COMPLFL":"N","EOSSTT":"DISCONTINUED","DCSREAS":"PROTOCOL VIOLATION","EOSDT":"2013-05-10","DTHFL":null,"DTHDT":null,"DTHDY":null,"DTHCAUS":null},{"STUDYID":"CDISCPILOT01","USUBJID":"01-708-1378","SUBJID":"1378","SITEID":"708","SITEGR1":"900","COUNTRY":"USA","ARM":"Placebo","ARMCD":"Pbo","ACTARM":"Placebo","ACTARMCD":"Pbo","TRT01P":"Placebo","TRT01PN":null,"TRT01A":"Placebo","TRT01AN":null,"TRTP":"Placebo","TRTSDT":"2013-09-03","TRTEDT":"2014-01-28","TRTDURD":148,"AGE":67,"AGEU":"YEARS","AGEGR1":"65-80","AGEGR1N":2,"SEX":"M","RACE":"BLACK OR AFRICAN AMERICAN","ETHNIC":"NOT HISPANIC OR LATINO","WEIGHTBL":70.31,"HEIGHTBL":170.18,"BMIBL":24.3,"RANDFL":"Y","ITTFL":"Y","SAFFL":"Y","EFFFL":"N","COMPLFL":"N","EOSSTT":"DISCONTINUED","DCSREAS":"STUDY TERMINATED BY SPONSOR","EOSDT":"2014-01-28","DTHFL":null,"DTHDT":null,"DTHDY":null,"DTHCAUS":null},{"STUDYID":"CDISCPILOT01","USUBJID":"01-708-1406","SUBJID":"1406","SITEID":"708","SITEGR1":"900","COUNTRY":"USA","ARM":"Xanomeline High Dose","ARMCD":"Xan_Hi","ACTARM":"Xanomeline High Dose","ACTARMCD":"Xan_Hi","TRT01P":"Xanomeline High Dose","TRT01PN":null,"TRT01A":"Xanomeline High Dose","TRT01AN":null,"TRTP":"Xanomeline High Dose","TRTSDT":"2013-12-26","TRTEDT":"2014-07-02","TRTDURD":189,"AGE":71,"AGEU":"YEARS","AGEGR1":"65-80","AGEGR1N":2,"SEX":"F","RACE":"WHITE","ETHNIC":"NOT HISPANIC OR LATINO","WEIGHTBL":54.89,"HEIGHTBL":157.48,"BMIBL":22.1,"RANDFL":"Y","ITTFL":"Y","SAFFL":"Y","EFFFL":"N","COMPLFL":"Y","EOSSTT":"COMPLETED","DCSREAS":"COMPLETED","EOSDT":"2014-07-02","DTHFL":null,"DTHDT":null,"DTHDY":null,"DTHCAUS":null},{"STUDYID":"CDISCPILOT01","USUBJID":"01-708-1428","SUBJID":"1428","SITEID":"708","SITEGR1":"900","COUNTRY":"USA","ARM":"Xanomeline Low Dose","ARMCD":"Xan_Lo","ACTARM":"Xanomeline Low Dose","ACTARMCD":"Xan_Lo","TRT01P":"Xanomeline Low Dose","TRT01PN":null,"TRT01A":"Xanomeline Low Dose","TRT01AN":null,"TRTP":"Xanomeline Low Dose","TRTSDT":"2013-11-09","TRTEDT":"2013-12-14","TRTDURD":36,"AGE":84,"AGEU":"YEARS","AGEGR1":">80","AGEGR1N":3,"SEX":"F","RACE":"WHITE","ETHNIC":"NOT HISPANIC OR LATINO","WEIGHTBL":58.97,"HEIGHTBL":157.48,"BMIBL":23.8,"RANDFL":"Y","ITTFL":"Y","SAFFL":"Y","EFFFL":"N","COMPLFL":"N","EOSSTT":"DISCONTINUED","DCSREAS":"ADVERSE EVENT","EOSDT":"2014-01-31","DTHFL":null,"DTHDT":null,"DTHDY":null,"DTHCAUS":null},{"STUDYID":"CDISCPILOT01","USUBJID":"01-709-1001","SUBJID":"1001","SITEID":"709","SITEGR1":"900","COUNTRY":"USA","ARM":"Placebo","ARMCD":"Pbo","ACTARM":"Placebo","ACTARMCD":"Pbo","TRT01P":"Placebo","TRT01PN":null,"TRT01A":"Placebo","TRT01AN":null,"TRTP":"Placebo","TRTSDT":"2013-10-08","TRTEDT":"2014-04-08","TRTDURD":183,"AGE":76,"AGEU":"YEARS","AGEGR1":"65-80","AGEGR1N":2,"SEX":"F","RACE":"WHITE","ETHNIC":"NOT HISPANIC OR LATINO","WEIGHTBL":73.03,"HEIGHTBL":170.18,"BMIBL":25.2,"RANDFL":"Y","ITTFL":"Y","SAFFL":"Y","EFFFL":"N","COMPLFL":"Y","EOSSTT":"COMPLETED","DCSREAS":"COMPLETED","EOSDT":"2014-04-08","DTHFL":null,"DTHDT":null,"DTHDY":null,"DTHCAUS":null},{"STUDYID":"CDISCPILOT01","USUBJID":"01-709-1007","SUBJID":"1007","SITEID":"709","SITEGR1":"900","COUNTRY":"USA","ARM":"Xanomeline Low Dose","ARMCD":"Xan_Lo","ACTARM":"Xanomeline Low Dose","ACTARMCD":"Xan_Lo","TRT01P":"Xanomeline Low Dose","TRT01PN":null,"TRT01A":"Xanomeline Low Dose","TRT01AN":null,"TRTP":"Xanomeline Low Dose","TRTSDT":"2012-07-31","TRTEDT":"2012-08-28","TRTDURD":29,"AGE":54,"AGEU":"YEARS","AGEGR1":"<65","AGEGR1N":1,"SEX":"F","RACE":"WHITE","ETHNIC":"NOT HISPANIC OR LATINO","WEIGHTBL":59.88,"HEIGHTBL":158.75,"BMIBL":23.8,"RANDFL":"Y","ITTFL":"Y","SAFFL":"Y","EFFFL":"N","COMPLFL":"N","EOSSTT":"DISCONTINUED","DCSREAS":"ADVERSE EVENT","EOSDT":"2012-09-01","DTHFL":null,"DTHDT":null,"DTHDY":null,"DTHCAUS":null},{"STUDYID":"CDISCPILOT01","USUBJID":"01-709-1020","SUBJID":"1020","SITEID":"709","SITEGR1":"900","COUNTRY":"USA","ARM":"Xanomeline Low Dose","ARMCD":"Xan_Lo","ACTARM":"Xanomeline Low Dose","ACTARMCD":"Xan_Lo","TRT01P":"Xanomeline Low Dose","TRT01PN":null,"TRT01A":"Xanomeline Low Dose","TRT01AN":null,"TRTP":"Xanomeline Low Dose","TRTSDT":"2012-12-01","TRTEDT":"2013-06-01","TRTDURD":183,"AGE":72,"AGEU":"YEARS","AGEGR1":"65-80","AGEGR1N":2,"SEX":"F","RACE":"WHITE","ETHNIC":"NOT HISPANIC OR LATINO","WEIGHTBL":54.43,"HEIGHTBL":144.78,"BMIBL":26,"RANDFL":"Y","ITTFL":"Y","SAFFL":"Y","EFFFL":"N","COMPLFL":"Y","EOSSTT":"COMPLETED","DCSREAS":"COMPLETED","EOSDT":"2013-06-01","DTHFL":null,"DTHDT":null,"DTHDY":null,"DTHCAUS":null},{"STUDYID":"CDISCPILOT01","USUBJID":"01-709-1029","SUBJID":"1029","SITEID":"709","SITEGR1":"900","COUNTRY":"USA","ARM":"Xanomeline High Dose","ARMCD":"Xan_Hi","ACTARM":"Xanomeline High Dose","ACTARMCD":"Xan_Hi","TRT01P":"Xanomeline High Dose","TRT01PN":null,"TRT01A":"Xanomeline High Dose","TRT01AN":null,"TRTP":"Xanomeline High Dose","TRTSDT":"2012-12-25","TRTEDT":"2013-06-26","TRTDURD":184,"AGE":82,"AGEU":"YEARS","AGEGR1":">80","AGEGR1N":3,"SEX":"M","RACE":"WHITE","ETHNIC":"NOT HISPANIC OR LATINO","WEIGHTBL":68.95,"HEIGHTBL":172.72,"BMIBL":23.1,"RANDFL":"Y","ITTFL":"Y","SAFFL":"Y","EFFFL":"N","COMPLFL":"Y","EOSSTT":"COMPLETED","DCSREAS":"COMPLETED","EOSDT":"2013-06-26","DTHFL":null,"DTHDT":null,"DTHDY":null,"DTHCAUS":null},{"STUDYID":"CDISCPILOT01","USUBJID":"01-709-1081","SUBJID":"1081","SITEID":"709","SITEGR1":"900","COUNTRY":"USA","ARM":"Xanomeline Low Dose","ARMCD":"Xan_Lo","ACTARM":"Xanomeline Low Dose","ACTARMCD":"Xan_Lo","TRT01P":"Xanomeline Low Dose","TRT01PN":null,"TRT01A":"Xanomeline Low Dose","TRT01AN":null,"TRTP":"Xanomeline Low Dose","TRTSDT":"2014-01-18","TRTEDT":"2014-04-27","TRTDURD":100,"AGE":86,"AGEU":"YEARS","AGEGR1":">80","AGEGR1N":3,"SEX":"F","RACE":"WHITE","ETHNIC":"NOT HISPANIC OR LATINO","WEIGHTBL":56.47,"HEIGHTBL":154.94,"BMIBL":23.5,"RANDFL":"Y","ITTFL":"Y","SAFFL":"Y","EFFFL":"N","COMPLFL":"N","EOSSTT":"DISCONTINUED","DCSREAS":"ADVERSE EVENT","EOSDT":"2014-05-10","DTHFL":null,"DTHDT":null,"DTHDY":null,"DTHCAUS":null},{"STUDYID":"CDISCPILOT01","USUBJID":"01-709-1088","SUBJID":"1088","SITEID":"709","SITEGR1":"900","COUNTRY":"USA","ARM":"Placebo","ARMCD":"Pbo","ACTARM":"Placebo","ACTARMCD":"Pbo","TRT01P":"Placebo","TRT01PN":null,"TRT01A":"Placebo","TRT01AN":null,"TRTP":"Placebo","TRTSDT":"2014-04-12","TRTEDT":"2014-10-09","TRTDURD":181,"AGE":69,"AGEU":"YEARS","AGEGR1":"65-80","AGEGR1N":2,"SEX":"M","RACE":"WHITE","ETHNIC":"NOT HISPANIC OR LATINO","WEIGHTBL":79.38,"HEIGHTBL":179.07,"BMIBL":24.8,"RANDFL":"Y","ITTFL":"Y","SAFFL":"Y","EFFFL":"N","COMPLFL":"Y","EOSSTT":"COMPLETED","DCSREAS":"COMPLETED","EOSDT":"2014-10-09","DTHFL":null,"DTHDT":null,"DTHDY":null,"DTHCAUS":null},{"STUDYID":"CDISCPILOT01","USUBJID":"01-709-1099","SUBJID":"1099","SITEID":"709","SITEGR1":"900","COUNTRY":"USA","ARM":"Xanomeline High Dose","ARMCD":"Xan_Hi","ACTARM":"Xanomeline High Dose","ACTARMCD":"Xan_Hi","TRT01P":"Xanomeline High Dose","TRT01PN":null,"TRT01A":"Xanomeline High Dose","TRT01AN":null,"TRTP":"Xanomeline High Dose","TRTSDT":"2013-10-25","TRTEDT":"2014-04-25","TRTDURD":183,"AGE":79,"AGEU":"YEARS","AGEGR1":"65-80","AGEGR1N":2,"SEX":"F","RACE":"WHITE","ETHNIC":"NOT HISPANIC OR LATINO","WEIGHTBL":53.52,"HEIGHTBL":165.1,"BMIBL":19.6,"RANDFL":"Y","ITTFL":"Y","SAFFL":"Y","EFFFL":"N","COMPLFL":"Y","EOSSTT":"COMPLETED","DCSREAS":"COMPLETED","EOSDT":"2014-04-25","DTHFL":null,"DTHDT":null,"DTHDY":null,"DTHCAUS":null},{"STUDYID":"CDISCPILOT01","USUBJID":"01-709-1102","SUBJID":"1102","SITEID":"709","SITEGR1":"900","COUNTRY":"USA","ARM":"Xanomeline Low Dose","ARMCD":"Xan_Lo","ACTARM":"Xanomeline Low Dose","ACTARMCD":"Xan_Lo","TRT01P":"Xanomeline Low Dose","TRT01PN":null,"TRT01A":"Xanomeline Low Dose","TRT01AN":null,"TRTP":"Xanomeline Low Dose","TRTSDT":"2013-01-15","TRTEDT":"2013-03-27","TRTDURD":72,"AGE":71,"AGEU":"YEARS","AGEGR1":"65-80","AGEGR1N":2,"SEX":"F","RACE":"WHITE","ETHNIC":"NOT HISPANIC OR LATINO","WEIGHTBL":88.91,"HEIGHTBL":166.37,"BMIBL":32.1,"RANDFL":"Y","ITTFL":"Y","SAFFL":"Y","EFFFL":"N","COMPLFL":"N","EOSSTT":"DISCONTINUED","DCSREAS":"ADVERSE EVENT","EOSDT":"2013-03-31","DTHFL":null,"DTHDT":null,"DTHDY":null,"DTHCAUS":null},{"STUDYID":"CDISCPILOT01","USUBJID":"01-709-1168","SUBJID":"1168","SITEID":"709","SITEGR1":"900","COUNTRY":"USA","ARM":"Xanomeline High Dose","ARMCD":"Xan_Hi","ACTARM":"Xanomeline High Dose","ACTARMCD":"Xan_Hi","TRT01P":"Xanomeline High Dose","TRT01PN":null,"TRT01A":"Xanomeline High Dose","TRT01AN":null,"TRTP":"Xanomeline High Dose","TRTSDT":"2013-08-02","TRTEDT":"2013-09-26","TRTDURD":56,"AGE":72,"AGEU":"YEARS","AGEGR1":"65-80","AGEGR1N":2,"SEX":"F","RACE":"WHITE","ETHNIC":"NOT HISPANIC OR LATINO","WEIGHTBL":62.14,"HEIGHTBL":149.86,"BMIBL":27.7,"RANDFL":"Y","ITTFL":"Y","SAFFL":"Y","EFFFL":"N","COMPLFL":"N","EOSSTT":"DISCONTINUED","DCSREAS":"ADVERSE EVENT","EOSDT":"2013-09-27","DTHFL":null,"DTHDT":null,"DTHDY":null,"DTHCAUS":null},{"STUDYID":"CDISCPILOT01","USUBJID":"01-709-1217","SUBJID":"1217","SITEID":"709","SITEGR1":"900","COUNTRY":"USA","ARM":"Xanomeline Low Dose","ARMCD":"Xan_Lo","ACTARM":"Xanomeline Low Dose","ACTARMCD":"Xan_Lo","TRT01P":"Xanomeline Low Dose","TRT01PN":null,"TRT01A":"Xanomeline Low Dose","TRT01AN":null,"TRTP":"Xanomeline Low Dose","TRTSDT":"2013-03-04","TRTEDT":"2013-06-11","TRTDURD":100,"AGE":77,"AGEU":"YEARS","AGEGR1":"65-80","AGEGR1N":2,"SEX":"M","RACE":"WHITE","ETHNIC":"NOT HISPANIC OR LATINO","WEIGHTBL":68.04,"HEIGHTBL":171.45,"BMIBL":23.1,"RANDFL":"Y","ITTFL":"Y","SAFFL":"Y","EFFFL":"N","COMPLFL":"N","EOSSTT":"DISCONTINUED","DCSREAS":"ADVERSE EVENT","EOSDT":"2013-06-25","DTHFL":null,"DTHDT":null,"DTHDY":null,"DTHCAUS":null},{"STUDYID":"CDISCPILOT01","USUBJID":"01-709-1224","SUBJID":"1224","SITEID":"709","SITEGR1":"900","COUNTRY":"USA","ARM":"Screen Failure","ARMCD":"Scrnfail","ACTARM":"Screen Failure","ACTARMCD":"Scrnfail","TRT01P":"Screen Failure","TRT01PN":null,"TRT01A":"Screen Failure","TRT01AN":null,"TRTP":"Screen Failure","TRTSDT":null,"TRTEDT":null,"TRTDURD":null,"AGE":84,"AGEU":"YEARS","AGEGR1":">80","AGEGR1N":3,"SEX":"M","RACE":"WHITE","ETHNIC":"NOT HISPANIC OR LATINO","WEIGHTBL":null,"HEIGHTBL":null,"BMIBL":null,"RANDFL":"Y","ITTFL":"Y","SAFFL":"N","EFFFL":"N","COMPLFL":"N","EOSSTT":"DISCONTINUED","DCSREAS":"SCREEN FAILURE","EOSDT":"2013-11-18","DTHFL":null,"DTHDT":null,"DTHDY":null,"DTHCAUS":null},{"STUDYID":"CDISCPILOT01","USUBJID":"01-709-1237","SUBJID":"1237","SITEID":"709","SITEGR1":"900","COUNTRY":"USA","ARM":"Screen Failure","ARMCD":"Scrnfail","ACTARM":"Screen Failure","ACTARMCD":"Scrnfail","TRT01P":"Screen Failure","TRT01PN":null,"TRT01A":"Screen Failure","TRT01AN":null,"TRTP":"Screen Failure","TRTSDT":null,"TRTEDT":null,"TRTDURD":null,"AGE":88,"AGEU":"YEARS","AGEGR1":">80","AGEGR1N":3,"SEX":"F","RACE":"WHITE","ETHNIC":"HISPANIC OR LATINO","WEIGHTBL":null,"HEIGHTBL":null,"BMIBL":null,"RANDFL":"Y","ITTFL":"Y","SAFFL":"N","EFFFL":"N","COMPLFL":"N","EOSSTT":"DISCONTINUED","DCSREAS":"SCREEN FAILURE","EOSDT":"2014-01-17","DTHFL":null,"DTHDT":null,"DTHDY":null,"DTHCAUS":null},{"STUDYID":"CDISCPILOT01","USUBJID":"01-709-1238","SUBJID":"1238","SITEID":"709","SITEGR1":"900","COUNTRY":"USA","ARM":"Xanomeline High Dose","ARMCD":"Xan_Hi","ACTARM":"Xanomeline High Dose","ACTARMCD":"Xan_Hi","TRT01P":"Xanomeline High Dose","TRT01PN":null,"TRT01A":"Xanomeline High Dose","TRT01AN":null,"TRTP":"Xanomeline High Dose","TRTSDT":"2013-05-15","TRTEDT":"2013-08-06","TRTDURD":84,"AGE":69,"AGEU":"YEARS","AGEGR1":"65-80","AGEGR1N":2,"SEX":"M","RACE":"WHITE","ETHNIC":"NOT HISPANIC OR LATINO","WEIGHTBL":82.56,"HEIGHTBL":170.18,"BMIBL":28.5,"RANDFL":"Y","ITTFL":"Y","SAFFL":"Y","EFFFL":"N","COMPLFL":"N","EOSSTT":"DISCONTINUED","DCSREAS":"ADVERSE EVENT","EOSDT":"2013-08-07","DTHFL":null,"DTHDT":null,"DTHDY":null,"DTHCAUS":null},{"STUDYID":"CDISCPILOT01","USUBJID":"01-709-1259","SUBJID":"1259","SITEID":"709","SITEGR1":"900","COUNTRY":"USA","ARM":"Placebo","ARMCD":"Pbo","ACTARM":"Placebo","ACTARMCD":"Pbo","TRT01P":"Placebo","TRT01PN":null,"TRT01A":"Placebo","TRT01AN":null,"TRTP":"Placebo","TRTSDT":"2013-01-26","TRTEDT":"2013-06-13","TRTDURD":139,"AGE":82,"AGEU":"YEARS","AGEGR1":">80","AGEGR1N":3,"SEX":"M","RACE":"WHITE","ETHNIC":"NOT HISPANIC OR LATINO","WEIGHTBL":65.32,"HEIGHTBL":172.72,"BMIBL":21.9,"RANDFL":"Y","ITTFL":"Y","SAFFL":"Y","EFFFL":"N","COMPLFL":"N","EOSSTT":"DISCONTINUED","DCSREAS":"LACK OF EFFICACY","EOSDT":"2013-06-13","DTHFL":null,"DTHDT":null,"DTHDY":null,"DTHCAUS":null},{"STUDYID":"CDISCPILOT01","USUBJID":"01-709-1285","SUBJID":"1285","SITEID":"709","SITEGR1":"900","COUNTRY":"USA","ARM":"Xanomeline Low Dose","ARMCD":"Xan_Lo","ACTARM":"Xanomeline Low Dose","ACTARMCD":"Xan_Lo","TRT01P":"Xanomeline Low Dose","TRT01PN":null,"TRT01A":"Xanomeline Low Dose","TRT01AN":null,"TRTP":"Xanomeline Low Dose","TRTSDT":"2013-03-24","TRTEDT":"2013-05-23","TRTDURD":61,"AGE":87,"AGEU":"YEARS","AGEGR1":">80","AGEGR1N":3,"SEX":"M","RACE":"WHITE","ETHNIC":"NOT HISPANIC OR LATINO","WEIGHTBL":64.86,"HEIGHTBL":167.64,"BMIBL":23.1,"RANDFL":"Y","ITTFL":"Y","SAFFL":"Y","EFFFL":"N","COMPLFL":"N","EOSSTT":"DISCONTINUED","DCSREAS":"STUDY TERMINATED BY SPONSOR","EOSDT":"2013-05-31","DTHFL":null,"DTHDT":null,"DTHDY":null,"DTHCAUS":null},{"STUDYID":"CDISCPILOT01","USUBJID":"01-709-1301","SUBJID":"1301","SITEID":"709","SITEGR1":"900","COUNTRY":"USA","ARM":"Placebo","ARMCD":"Pbo","ACTARM":"Placebo","ACTARMCD":"Pbo","TRT01P":"Placebo","TRT01PN":null,"TRT01A":"Placebo","TRT01AN":null,"TRTP":"Placebo","TRTSDT":"2013-07-19","TRTEDT":"2014-01-17","TRTDURD":183,"AGE":62,"AGEU":"YEARS","AGEGR1":"<65","AGEGR1N":1,"SEX":"F","RACE":"WHITE","ETHNIC":"NOT HISPANIC OR LATINO","WEIGHTBL":50.35,"HEIGHTBL":146.05,"BMIBL":23.6,"RANDFL":"Y","ITTFL":"Y","SAFFL":"Y","EFFFL":"N","COMPLFL":"Y","EOSSTT":"COMPLETED","DCSREAS":"COMPLETED","EOSDT":"2014-01-17","DTHFL":null,"DTHDT":null,"DTHDY":null,"DTHCAUS":null},{"STUDYID":"CDISCPILOT01","USUBJID":"01-709-1306","SUBJID":"1306","SITEID":"709","SITEGR1":"900","COUNTRY":"USA","ARM":"Placebo","ARMCD":"Pbo","ACTARM":"Placebo","ACTARMCD":"Pbo","TRT01P":"Placebo","TRT01PN":null,"TRT01A":"Placebo","TRT01AN":null,"TRTP":"Placebo","TRTSDT":"2014-02-03","TRTEDT":"2014-06-16","TRTDURD":134,"AGE":60,"AGEU":"YEARS","AGEGR1":"<65","AGEGR1N":1,"SEX":"F","RACE":"WHITE","ETHNIC":"NOT HISPANIC OR LATINO","WEIGHTBL":44.45,"HEIGHTBL":154.94,"BMIBL":18.5,"RANDFL":"Y","ITTFL":"Y","SAFFL":"Y","EFFFL":"N","COMPLFL":"N","EOSSTT":"DISCONTINUED","DCSREAS":"ADVERSE EVENT","EOSDT":"2014-06-25","DTHFL":null,"DTHDT":null,"DTHDY":null,"DTHCAUS":null},{"STUDYID":"CDISCPILOT01","USUBJID":"01-709-1309","SUBJID":"1309","SITEID":"709","SITEGR1":"900","COUNTRY":"USA","ARM":"Xanomeline High Dose","ARMCD":"Xan_Hi","ACTARM":"Xanomeline High Dose","ACTARMCD":"Xan_Hi","TRT01P":"Xanomeline High Dose","TRT01PN":null,"TRT01A":"Xanomeline High Dose","TRT01AN":null,"TRTP":"Xanomeline High Dose","TRTSDT":"2013-06-19","TRTEDT":"2013-12-19","TRTDURD":184,"AGE":65,"AGEU":"YEARS","AGEGR1":"65-80","AGEGR1N":2,"SEX":"M","RACE":"WHITE","ETHNIC":"NOT HISPANIC OR LATINO","WEIGHTBL":78.47,"HEIGHTBL":177.8,"BMIBL":24.8,"RANDFL":"Y","ITTFL":"Y","SAFFL":"Y","EFFFL":"N","COMPLFL":"Y","EOSSTT":"COMPLETED","DCSREAS":"COMPLETED","EOSDT":"2013-12-19","DTHFL":null,"DTHDT":null,"DTHDY":null,"DTHCAUS":null},{"STUDYID":"CDISCPILOT01","USUBJID":"01-709-1312","SUBJID":"1312","SITEID":"709","SITEGR1":"900","COUNTRY":"USA","ARM":"Placebo","ARMCD":"Pbo","ACTARM":"Placebo","ACTARMCD":"Pbo","TRT01P":"Placebo","TRT01PN":null,"TRT01A":"Placebo","TRT01AN":null,"TRTP":"Placebo","TRTSDT":"2014-04-20","TRTEDT":"2014-10-19","TRTDURD":183,"AGE":68,"AGEU":"YEARS","AGEGR1":"65-80","AGEGR1N":2,"SEX":"F","RACE":"WHITE","ETHNIC":"NOT HISPANIC OR LATINO","WEIGHTBL":53.52,"HEIGHTBL":160.02,"BMIBL":20.9,"RANDFL":"Y","ITTFL":"Y","SAFFL":"Y","EFFFL":"N","COMPLFL":"Y","EOSSTT":"COMPLETED","DCSREAS":"COMPLETED","EOSDT":"2014-10-19","DTHFL":null,"DTHDT":null,"DTHDY":null,"DTHCAUS":null},{"STUDYID":"CDISCPILOT01","USUBJID":"01-709-1326","SUBJID":"1326","SITEID":"709","SITEGR1":"900","COUNTRY":"USA","ARM":"Xanomeline Low Dose","ARMCD":"Xan_Lo","ACTARM":"Xanomeline Low Dose","ACTARMCD":"Xan_Lo","TRT01P":"Xanomeline Low Dose","TRT01PN":null,"TRT01A":"Xanomeline Low Dose","TRT01AN":null,"TRTP":"Xanomeline Low Dose","TRTSDT":"2013-04-05","TRTEDT":"2013-10-02","TRTDURD":181,"AGE":75,"AGEU":"YEARS","AGEGR1":"65-80","AGEGR1N":2,"SEX":"F","RACE":"WHITE","ETHNIC":"NOT HISPANIC OR LATINO","WEIGHTBL":74.84,"HEIGHTBL":161.29,"BMIBL":28.8,"RANDFL":"Y","ITTFL":"Y","SAFFL":"Y","EFFFL":"N","COMPLFL":"Y","EOSSTT":"COMPLETED","DCSREAS":"COMPLETED","EOSDT":"2013-10-02","DTHFL":null,"DTHDT":null,"DTHDY":null,"DTHCAUS":null},{"STUDYID":"CDISCPILOT01","USUBJID":"01-709-1329","SUBJID":"1329","SITEID":"709","SITEGR1":"900","COUNTRY":"USA","ARM":"Xanomeline High Dose","ARMCD":"Xan_Hi","ACTARM":"Xanomeline Low Dose","ACTARMCD":"Xan_Lo","TRT01P":"Xanomeline High Dose","TRT01PN":null,"TRT01A":"Xanomeline Low Dose","TRT01AN":null,"TRTP":"Xanomeline High Dose","TRTSDT":"2013-08-15","TRTEDT":"2013-08-25","TRTDURD":11,"AGE":70,"AGEU":"YEARS","AGEGR1":"65-80","AGEGR1N":2,"SEX":"M","RACE":"WHITE","ETHNIC":"NOT HISPANIC OR LATINO","WEIGHTBL":76.66,"HEIGHTBL":170.18,"BMIBL":26.5,"RANDFL":"Y","ITTFL":"Y","SAFFL":"Y","EFFFL":"N","COMPLFL":"N","EOSSTT":"DISCONTINUED","DCSREAS":"WITHDRAWAL BY SUBJECT","EOSDT":"2013-08-29","DTHFL":null,"DTHDT":null,"DTHDY":null,"DTHCAUS":null},{"STUDYID":"CDISCPILOT01","USUBJID":"01-709-1339","SUBJID":"1339","SITEID":"709","SITEGR1":"900","COUNTRY":"USA","ARM":"Placebo","ARMCD":"Pbo","ACTARM":"Placebo","ACTARMCD":"Pbo","TRT01P":"Placebo","TRT01PN":null,"TRT01A":"Placebo","TRT01AN":null,"TRTP":"Placebo","TRTSDT":"2012-12-23","TRTEDT":"2013-06-24","TRTDURD":184,"AGE":81,"AGEU":"YEARS","AGEGR1":">80","AGEGR1N":3,"SEX":"M","RACE":"WHITE","ETHNIC":"NOT HISPANIC OR LATINO","WEIGHTBL":78.02,"HEIGHTBL":175.26,"BMIBL":25.4,"RANDFL":"Y","ITTFL":"Y","SAFFL":"Y","EFFFL":"N","COMPLFL":"Y","EOSSTT":"COMPLETED","DCSREAS":"COMPLETED","EOSDT":"2013-06-24","DTHFL":null,"DTHDT":null,"DTHDY":null,"DTHCAUS":null},{"STUDYID":"CDISCPILOT01","USUBJID":"01-709-1424","SUBJID":"1424","SITEID":"709","SITEGR1":"900","COUNTRY":"USA","ARM":"Xanomeline High Dose","ARMCD":"Xan_Hi","ACTARM":"Xanomeline Low Dose","ACTARMCD":"Xan_Lo","TRT01P":"Xanomeline High Dose","TRT01PN":null,"TRT01A":"Xanomeline Low Dose","TRT01AN":null,"TRTP":"Xanomeline High Dose","TRTSDT":"2013-03-03","TRTEDT":"2013-03-07","TRTDURD":5,"AGE":77,"AGEU":"YEARS","AGEGR1":"65-80","AGEGR1N":2,"SEX":"M","RACE":"WHITE","ETHNIC":"NOT HISPANIC OR LATINO","WEIGHTBL":68.49,"HEIGHTBL":173.99,"BMIBL":22.6,"RANDFL":"Y","ITTFL":"Y","SAFFL":"Y","EFFFL":"N","COMPLFL":"N","EOSSTT":"DISCONTINUED","DCSREAS":"ADVERSE EVENT","EOSDT":"2013-03-08","DTHFL":null,"DTHDT":null,"DTHDY":null,"DTHCAUS":null},{"STUDYID":"CDISCPILOT01","USUBJID":"01-710-1002","SUBJID":"1002","SITEID":"710","SITEGR1":"900","COUNTRY":"USA","ARM":"Xanomeline Low Dose","ARMCD":"Xan_Lo","ACTARM":"Xanomeline Low Dose","ACTARMCD":"Xan_Lo","TRT01P":"Xanomeline Low Dose","TRT01PN":null,"TRT01A":"Xanomeline Low Dose","TRT01AN":null,"TRTP":"Xanomeline Low Dose","TRTSDT":"2014-01-14","TRTEDT":"2014-01-18","TRTDURD":5,"AGE":88,"AGEU":"YEARS","AGEGR1":">80","AGEGR1N":3,"SEX":"M","RACE":"WHITE","ETHNIC":"NOT HISPANIC OR LATINO","WEIGHTBL":70.31,"HEIGHTBL":165.1,"BMIBL":25.8,"RANDFL":"Y","ITTFL":"Y","SAFFL":"Y","EFFFL":"N","COMPLFL":"N","EOSSTT":"DISCONTINUED","DCSREAS":"ADVERSE EVENT","EOSDT":"2014-01-18","DTHFL":null,"DTHDT":null,"DTHDY":null,"DTHCAUS":null},{"STUDYID":"CDISCPILOT01","USUBJID":"01-710-1006","SUBJID":"1006","SITEID":"710","SITEGR1":"900","COUNTRY":"USA","ARM":"Xanomeline High Dose","ARMCD":"Xan_Hi","ACTARM":"Xanomeline High Dose","ACTARMCD":"Xan_Hi","TRT01P":"Xanomeline High Dose","TRT01PN":null,"TRT01A":"Xanomeline High Dose","TRT01AN":null,"TRTP":"Xanomeline High Dose","TRTSDT":"2013-02-10","TRTEDT":"2013-08-09","TRTDURD":181,"AGE":77,"AGEU":"YEARS","AGEGR1":"65-80","AGEGR1N":2,"SEX":"M","RACE":"WHITE","ETHNIC":"NOT HISPANIC OR LATINO","WEIGHTBL":72.58,"HEIGHTBL":170.18,"BMIBL":25.1,"RANDFL":"Y","ITTFL":"Y","SAFFL":"Y","EFFFL":"N","COMPLFL":"Y","EOSSTT":"COMPLETED","DCSREAS":"COMPLETED","EOSDT":"2013-08-10","DTHFL":null,"DTHDT":null,"DTHDY":null,"DTHCAUS":null},{"STUDYID":"CDISCPILOT01","USUBJID":"01-710-1021","SUBJID":"1021","SITEID":"710","SITEGR1":"900","COUNTRY":"USA","ARM":"Xanomeline High Dose","ARMCD":"Xan_Hi","ACTARM":"Xanomeline High Dose","ACTARMCD":"Xan_Hi","TRT01P":"Xanomeline High Dose","TRT01PN":null,"TRT01A":"Xanomeline High Dose","TRT01AN":null,"TRTP":"Xanomeline High Dose","TRTSDT":"2013-09-27","TRTEDT":"2013-10-29","TRTDURD":33,"AGE":79,"AGEU":"YEARS","AGEGR1":"65-80","AGEGR1N":2,"SEX":"M","RACE":"BLACK OR AFRICAN AMERICAN","ETHNIC":"NOT HISPANIC OR LATINO","WEIGHTBL":56.25,"HEIGHTBL":162.56,"BMIBL":21.3,"RANDFL":"Y","ITTFL":"Y","SAFFL":"Y","EFFFL":"N","COMPLFL":"N","EOSSTT":"DISCONTINUED","DCSREAS":"ADVERSE EVENT","EOSDT":"2013-11-12","DTHFL":null,"DTHDT":null,"DTHDY":null,"DTHCAUS":null},{"STUDYID":"CDISCPILOT01","USUBJID":"01-710-1027","SUBJID":"1027","SITEID":"710","SITEGR1":"900","COUNTRY":"USA","ARM":"Placebo","ARMCD":"Pbo","ACTARM":"Placebo","ACTARMCD":"Pbo","TRT01P":"Placebo","TRT01PN":null,"TRT01A":"Placebo","TRT01AN":null,"TRTP":"Placebo","TRTSDT":"2014-02-28","TRTEDT":"2014-08-29","TRTDURD":183,"AGE":83,"AGEU":"YEARS","AGEGR1":">80","AGEGR1N":3,"SEX":"M","RACE":"WHITE","ETHNIC":"NOT HISPANIC OR LATINO","WEIGHTBL":70.76,"HEIGHTBL":170.18,"BMIBL":24.4,"RANDFL":"Y","ITTFL":"Y","SAFFL":"Y","EFFFL":"N","COMPLFL":"Y","EOSSTT":"COMPLETED","DCSREAS":"COMPLETED","EOSDT":"2014-08-29","DTHFL":null,"DTHDT":null,"DTHDY":null,"DTHCAUS":null},{"STUDYID":"CDISCPILOT01","USUBJID":"01-710-1045","SUBJID":"1045","SITEID":"710","SITEGR1":"900","COUNTRY":"USA","ARM":"Xanomeline Low Dose","ARMCD":"Xan_Lo","ACTARM":"Xanomeline Low Dose","ACTARMCD":"Xan_Lo","TRT01P":"Xanomeline Low Dose","TRT01PN":null,"TRT01A":"Xanomeline Low Dose","TRT01AN":null,"TRTP":"Xanomeline Low Dose","TRTSDT":"2013-06-03","TRTEDT":"2013-08-13","TRTDURD":72,"AGE":83,"AGEU":"YEARS","AGEGR1":">80","AGEGR1N":3,"SEX":"F","RACE":"WHITE","ETHNIC":"NOT HISPANIC OR LATINO","WEIGHTBL":58.06,"HEIGHTBL":162.56,"BMIBL":22,"RANDFL":"Y","ITTFL":"Y","SAFFL":"Y","EFFFL":"N","COMPLFL":"N","EOSSTT":"DISCONTINUED","DCSREAS":"ADVERSE EVENT","EOSDT":"2013-08-17","DTHFL":null,"DTHDT":null,"DTHDY":null,"DTHCAUS":null},{"STUDYID":"CDISCPILOT01","USUBJID":"01-710-1053","SUBJID":"1053","SITEID":"710","SITEGR1":"900","COUNTRY":"USA","ARM":"Xanomeline Low Dose","ARMCD":"Xan_Lo","ACTARM":"Xanomeline Low Dose","ACTARMCD":"Xan_Lo","TRT01P":"Xanomeline Low Dose","TRT01PN":null,"TRT01A":"Xanomeline Low Dose","TRT01AN":null,"TRTP":"Xanomeline Low Dose","TRTSDT":"2012-12-26","TRTEDT":"2013-02-10","TRTDURD":47,"AGE":84,"AGEU":"YEARS","AGEGR1":">80","AGEGR1N":3,"SEX":"F","RACE":"WHITE","ETHNIC":"NOT HISPANIC OR LATINO","WEIGHTBL":51.71,"HEIGHTBL":157.48,"BMIBL":20.9,"RANDFL":"Y","ITTFL":"Y","SAFFL":"Y","EFFFL":"N","COMPLFL":"N","EOSSTT":"DISCONTINUED","DCSREAS":"ADVERSE EVENT","EOSDT":"2013-02-15","DTHFL":null,"DTHDT":null,"DTHDY":null,"DTHCAUS":null},{"STUDYID":"CDISCPILOT01","USUBJID":"01-710-1060","SUBJID":"1060","SITEID":"710","SITEGR1":"900","COUNTRY":"USA","ARM":"Placebo","ARMCD":"Pbo","ACTARM":"Placebo","ACTARMCD":"Pbo","TRT01P":"Placebo","TRT01PN":null,"TRT01A":"Placebo","TRT01AN":null,"TRTP":"Placebo","TRTSDT":"2013-01-01","TRTEDT":"2013-07-05","TRTDURD":186,"AGE":82,"AGEU":"YEARS","AGEGR1":">80","AGEGR1N":3,"SEX":"M","RACE":"WHITE","ETHNIC":"NOT HISPANIC OR LATINO","WEIGHTBL":70.31,"HEIGHTBL":182.88,"BMIBL":21,"RANDFL":"Y","ITTFL":"Y","SAFFL":"Y","EFFFL":"N","COMPLFL":"Y","EOSSTT":"COMPLETED","DCSREAS":"COMPLETED","EOSDT":"2013-07-05","DTHFL":null,"DTHDT":null,"DTHDY":null,"DTHCAUS":null},{"STUDYID":"CDISCPILOT01","USUBJID":"01-710-1070","SUBJID":"1070","SITEID":"710","SITEGR1":"900","COUNTRY":"USA","ARM":"Xanomeline High Dose","ARMCD":"Xan_Hi","ACTARM":"Xanomeline High Dose","ACTARMCD":"Xan_Hi","TRT01P":"Xanomeline High Dose","TRT01PN":null,"TRT01A":"Xanomeline High Dose","TRT01AN":null,"TRTP":"Xanomeline High Dose","TRTSDT":"2012-09-08","TRTEDT":"2013-01-22","TRTDURD":137,"AGE":85,"AGEU":"YEARS","AGEGR1":">80","AGEGR1N":3,"SEX":"F","RACE":"WHITE","ETHNIC":"NOT HISPANIC OR LATINO","WEIGHTBL":48.99,"HEIGHTBL":149.86,"BMIBL":21.8,"RANDFL":"Y","ITTFL":"Y","SAFFL":"Y","EFFFL":"N","COMPLFL":"N","EOSSTT":"DISCONTINUED","DCSREAS":"ADVERSE EVENT","EOSDT":"2013-02-23","DTHFL":null,"DTHDT":null,"DTHDY":null,"DTHCAUS":null},{"STUDYID":"CDISCPILOT01","USUBJID":"01-710-1077","SUBJID":"1077","SITEID":"710","SITEGR1":"900","COUNTRY":"USA","ARM":"Placebo","ARMCD":"Pbo","ACTARM":"Placebo","ACTARMCD":"Pbo","TRT01P":"Placebo","TRT01PN":null,"TRT01A":"Placebo","TRT01AN":null,"TRTP":"Placebo","TRTSDT":"2013-11-17","TRTEDT":"2014-05-18","TRTDURD":183,"AGE":76,"AGEU":"YEARS","AGEGR1":"65-80","AGEGR1N":2,"SEX":"F","RACE":"WHITE","ETHNIC":"NOT HISPANIC OR LATINO","WEIGHTBL":48.99,"HEIGHTBL":162.56,"BMIBL":18.5,"RANDFL":"Y","ITTFL":"Y","SAFFL":"Y","EFFFL":"N","COMPLFL":"Y","EOSSTT":"COMPLETED","DCSREAS":"COMPLETED","EOSDT":"2014-05-18","DTHFL":null,"DTHDT":null,"DTHDY":null,"DTHCAUS":null},{"STUDYID":"CDISCPILOT01","USUBJID":"01-710-1078","SUBJID":"1078","SITEID":"710","SITEGR1":"900","COUNTRY":"USA","ARM":"Placebo","ARMCD":"Pbo","ACTARM":"Placebo","ACTARMCD":"Pbo","TRT01P":"Placebo","TRT01PN":null,"TRT01A":"Placebo","TRT01AN":null,"TRTP":"Placebo","TRTSDT":"2013-09-17","TRTEDT":"2014-03-23","TRTDURD":188,"AGE":81,"AGEU":"YEARS","AGEGR1":">80","AGEGR1N":3,"SEX":"F","RACE":"WHITE","ETHNIC":"NOT HISPANIC OR LATINO","WEIGHTBL":41.73,"HEIGHTBL":152.4,"BMIBL":18,"RANDFL":"Y","ITTFL":"Y","SAFFL":"Y","EFFFL":"N","COMPLFL":"Y","EOSSTT":"COMPLETED","DCSREAS":"COMPLETED","EOSDT":"2014-03-23","DTHFL":null,"DTHDT":null,"DTHDY":null,"DTHCAUS":null},{"STUDYID":"CDISCPILOT01","USUBJID":"01-710-1083","SUBJID":"1083","SITEID":"710","SITEGR1":"900","COUNTRY":"USA","ARM":"Placebo","ARMCD":"Pbo","ACTARM":"Placebo","ACTARMCD":"Pbo","TRT01P":"Placebo","TRT01PN":null,"TRT01A":"Placebo","TRT01AN":null,"TRTP":"Placebo","TRTSDT":"2013-07-22","TRTEDT":"2013-08-01","TRTDURD":11,"AGE":89,"AGEU":"YEARS","AGEGR1":">80","AGEGR1N":3,"SEX":"F","RACE":"WHITE","ETHNIC":"NOT HISPANIC OR LATINO","WEIGHTBL":47.17,"HEIGHTBL":157.48,"BMIBL":19,"RANDFL":"Y","ITTFL":"Y","SAFFL":"Y","EFFFL":"N","COMPLFL":"N","EOSSTT":"DISCONTINUED","DCSREAS":"DEATH","EOSDT":"2013-08-02","DTHFL":"Y","DTHDT":"2013-08-02","DTHDY":12,"DTHCAUS":null},{"STUDYID":"CDISCPILOT01","USUBJID":"01-710-1129","SUBJID":"1129","SITEID":"710","SITEGR1":"900","COUNTRY":"USA","ARM":"Screen Failure","ARMCD":"Scrnfail","ACTARM":"Screen Failure","ACTARMCD":"Scrnfail","TRT01P":"Screen Failure","TRT01PN":null,"TRT01A":"Screen Failure","TRT01AN":null,"TRTP":"Screen Failure","TRTSDT":null,"TRTEDT":null,"TRTDURD":null,"AGE":69,"AGEU":"YEARS","AGEGR1":"65-80","AGEGR1N":2,"SEX":"F","RACE":"BLACK OR AFRICAN AMERICAN","ETHNIC":"NOT HISPANIC OR LATINO","WEIGHTBL":null,"HEIGHTBL":null,"BMIBL":null,"RANDFL":"Y","ITTFL":"Y","SAFFL":"N","EFFFL":"N","COMPLFL":"N","EOSSTT":"DISCONTINUED","DCSREAS":"SCREEN FAILURE","EOSDT":"2013-03-05","DTHFL":null,"DTHDT":null,"DTHDY":null,"DTHCAUS":null},{"STUDYID":"CDISCPILOT01","USUBJID":"01-710-1137","SUBJID":"1137","SITEID":"710","SITEGR1":"900","COUNTRY":"USA","ARM":"Xanomeline High Dose","ARMCD":"Xan_Hi","ACTARM":"Xanomeline High Dose","ACTARMCD":"Xan_Hi","TRT01P":"Xanomeline High Dose","TRT01PN":null,"TRT01A":"Xanomeline High Dose","TRT01AN":null,"TRTP":"Xanomeline High Dose","TRTSDT":"2013-10-11","TRTEDT":"2013-11-13","TRTDURD":34,"AGE":79,"AGEU":"YEARS","AGEGR1":"65-80","AGEGR1N":2,"SEX":"F","RACE":"BLACK OR AFRICAN AMERICAN","ETHNIC":"NOT HISPANIC OR LATINO","WEIGHTBL":65.32,"HEIGHTBL":165.1,"BMIBL":24,"RANDFL":"Y","ITTFL":"Y","SAFFL":"Y","EFFFL":"N","COMPLFL":"N","EOSSTT":"DISCONTINUED","DCSREAS":"ADVERSE EVENT","EOSDT":"2013-11-13","DTHFL":null,"DTHDT":null,"DTHDY":null,"DTHCAUS":null},{"STUDYID":"CDISCPILOT01","USUBJID":"01-710-1142","SUBJID":"1142","SITEID":"710","SITEGR1":"900","COUNTRY":"USA","ARM":"Xanomeline High Dose","ARMCD":"Xan_Hi","ACTARM":"Xanomeline High Dose","ACTARMCD":"Xan_Hi","TRT01P":"Xanomeline High Dose","TRT01PN":null,"TRT01A":"Xanomeline High Dose","TRT01AN":null,"TRTP":"Xanomeline High Dose","TRTSDT":"2012-10-02","TRTEDT":"2012-10-20","TRTDURD":19,"AGE":76,"AGEU":"YEARS","AGEGR1":"65-80","AGEGR1N":2,"SEX":"F","RACE":"WHITE","ETHNIC":"NOT HISPANIC OR LATINO","WEIGHTBL":57.61,"HEIGHTBL":152.4,"BMIBL":24.8,"RANDFL":"Y","ITTFL":"Y","SAFFL":"Y","EFFFL":"N","COMPLFL":"N","EOSSTT":"DISCONTINUED","DCSREAS":"ADVERSE EVENT","EOSDT":"2012-10-23","DTHFL":null,"DTHDT":null,"DTHDY":null,"DTHCAUS":null},{"STUDYID":"CDISCPILOT01","USUBJID":"01-710-1149","SUBJID":"1149","SITEID":"710","SITEGR1":"900","COUNTRY":"USA","ARM":"Screen Failure","ARMCD":"Scrnfail","ACTARM":"Screen Failure","ACTARMCD":"Scrnfail","TRT01P":"Screen Failure","TRT01PN":null,"TRT01A":"Screen Failure","TRT01AN":null,"TRTP":"Screen Failure","TRTSDT":null,"TRTEDT":null,"TRTDURD":null,"AGE":79,"AGEU":"YEARS","AGEGR1":"65-80","AGEGR1N":2,"SEX":"F","RACE":"WHITE","ETHNIC":"NOT HISPANIC OR LATINO","WEIGHTBL":null,"HEIGHTBL":null,"BMIBL":null,"RANDFL":"Y","ITTFL":"Y","SAFFL":"N","EFFFL":"N","COMPLFL":"N","EOSSTT":"DISCONTINUED","DCSREAS":"SCREEN FAILURE","EOSDT":"2013-11-16","DTHFL":null,"DTHDT":null,"DTHDY":null,"DTHCAUS":null},{"STUDYID":"CDISCPILOT01","USUBJID":"01-710-1154","SUBJID":"1154","SITEID":"710","SITEGR1":"900","COUNTRY":"USA","ARM":"Xanomeline Low Dose","ARMCD":"Xan_Lo","ACTARM":"Xanomeline Low Dose","ACTARMCD":"Xan_Lo","TRT01P":"Xanomeline Low Dose","TRT01PN":null,"TRT01A":"Xanomeline Low Dose","TRT01AN":null,"TRTP":"Xanomeline Low Dose","TRTSDT":"2014-03-29","TRTEDT":"2014-04-27","TRTDURD":30,"AGE":84,"AGEU":"YEARS","AGEGR1":">80","AGEGR1N":3,"SEX":"M","RACE":"WHITE","ETHNIC":"HISPANIC OR LATINO","WEIGHTBL":82.56,"HEIGHTBL":160.02,"BMIBL":32.2,"RANDFL":"Y","ITTFL":"Y","SAFFL":"Y","EFFFL":"N","COMPLFL":"N","EOSSTT":"DISCONTINUED","DCSREAS":"ADVERSE EVENT","EOSDT":"2014-05-09","DTHFL":null,"DTHDT":null,"DTHDY":null,"DTHCAUS":null},{"STUDYID":"CDISCPILOT01","USUBJID":"01-710-1166","SUBJID":"1166","SITEID":"710","SITEGR1":"900","COUNTRY":"USA","ARM":"Xanomeline Low Dose","ARMCD":"Xan_Lo","ACTARM":"Xanomeline Low Dose","ACTARMCD":"Xan_Lo","TRT01P":"Xanomeline Low Dose","TRT01PN":null,"TRT01A":"Xanomeline Low Dose","TRT01AN":null,"TRTP":"Xanomeline Low Dose","TRTSDT":"2012-11-30","TRTEDT":"2013-03-19","TRTDURD":110,"AGE":81,"AGEU":"YEARS","AGEGR1":">80","AGEGR1N":3,"SEX":"F","RACE":"WHITE","ETHNIC":"NOT HISPANIC OR LATINO","WEIGHTBL":54.89,"HEIGHTBL":157.48,"BMIBL":22.1,"RANDFL":"Y","ITTFL":"Y","SAFFL":"Y","EFFFL":"N","COMPLFL":"N","EOSSTT":"DISCONTINUED","DCSREAS":"ADVERSE EVENT","EOSDT":"2013-03-30","DTHFL":null,"DTHDT":null,"DTHDY":null,"DTHCAUS":null},{"STUDYID":"CDISCPILOT01","USUBJID":"01-710-1183","SUBJID":"1183","SITEID":"710","SITEGR1":"900","COUNTRY":"USA","ARM":"Placebo","ARMCD":"Pbo","ACTARM":"Placebo","ACTARMCD":"Pbo","TRT01P":"Placebo","TRT01PN":null,"TRT01A":"Placebo","TRT01AN":null,"TRTP":"Placebo","TRTSDT":"2013-11-16","TRTEDT":"2014-05-17","TRTDURD":183,"AGE":80,"AGEU":"YEARS","AGEGR1":"65-80","AGEGR1N":2,"SEX":"F","RACE":"WHITE","ETHNIC":"NOT HISPANIC OR LATINO","WEIGHTBL":47.63,"HEIGHTBL":149.86,"BMIBL":21.2,"RANDFL":"Y","ITTFL":"Y","SAFFL":"Y","EFFFL":"N","COMPLFL":"Y","EOSSTT":"COMPLETED","DCSREAS":"COMPLETED","EOSDT":"2014-05-17","DTHFL":null,"DTHDT":null,"DTHDY":null,"DTHCAUS":null},{"STUDYID":"CDISCPILOT01","USUBJID":"01-710-1187","SUBJID":"1187","SITEID":"710","SITEGR1":"900","COUNTRY":"USA","ARM":"Xanomeline High Dose","ARMCD":"Xan_Hi","ACTARM":"Xanomeline High Dose","ACTARMCD":"Xan_Hi","TRT01P":"Xanomeline High Dose","TRT01PN":null,"TRT01A":"Xanomeline High Dose","TRT01AN":null,"TRTP":"Xanomeline High Dose","TRTSDT":"2012-11-10","TRTEDT":"2013-05-12","TRTDURD":184,"AGE":78,"AGEU":"YEARS","AGEGR1":"65-80","AGEGR1N":2,"SEX":"F","RACE":"WHITE","ETHNIC":"NOT HISPANIC OR LATINO","WEIGHTBL":49.9,"HEIGHTBL":154.94,"BMIBL":20.8,"RANDFL":"Y","ITTFL":"Y","SAFFL":"Y","EFFFL":"N","COMPLFL":"Y","EOSSTT":"COMPLETED","DCSREAS":"COMPLETED","EOSDT":"2013-05-12","DTHFL":null,"DTHDT":null,"DTHDY":null,"DTHCAUS":null},{"STUDYID":"CDISCPILOT01","USUBJID":"01-710-1235","SUBJID":"1235","SITEID":"710","SITEGR1":"900","COUNTRY":"USA","ARM":"Xanomeline Low Dose","ARMCD":"Xan_Lo","ACTARM":"Xanomeline Low Dose","ACTARMCD":"Xan_Lo","TRT01P":"Xanomeline Low Dose","TRT01PN":null,"TRT01A":"Xanomeline Low Dose","TRT01AN":null,"TRTP":"Xanomeline Low Dose","TRTSDT":"2012-09-26","TRTEDT":"2013-03-27","TRTDURD":183,"AGE":56,"AGEU":"YEARS","AGEGR1":"<65","AGEGR1N":1,"SEX":"F","RACE":"WHITE","ETHNIC":"HISPANIC OR LATINO","WEIGHTBL":95.71,"HEIGHTBL":170.18,"BMIBL":33,"RANDFL":"Y","ITTFL":"Y","SAFFL":"Y","EFFFL":"N","COMPLFL":"Y","EOSSTT":"COMPLETED","DCSREAS":"COMPLETED","EOSDT":"2013-03-27","DTHFL":null,"DTHDT":null,"DTHDY":null,"DTHCAUS":null},{"STUDYID":"CDISCPILOT01","USUBJID":"01-710-1249","SUBJID":"1249","SITEID":"710","SITEGR1":"900","COUNTRY":"USA","ARM":"Xanomeline High Dose","ARMCD":"Xan_Hi","ACTARM":"Xanomeline High Dose","ACTARMCD":"Xan_Hi","TRT01P":"Xanomeline High Dose","TRT01PN":null,"TRT01A":"Xanomeline High Dose","TRT01AN":null,"TRTP":"Xanomeline High Dose","TRTSDT":"2013-12-28","TRTEDT":"2014-06-28","TRTDURD":183,"AGE":79,"AGEU":"YEARS","AGEGR1":"65-80","AGEGR1N":2,"SEX":"M","RACE":"WHITE","ETHNIC":"NOT HISPANIC OR LATINO","WEIGHTBL":80.29,"HEIGHTBL":177.8,"BMIBL":25.4,"RANDFL":"Y","ITTFL":"Y","SAFFL":"Y","EFFFL":"N","COMPLFL":"Y","EOSSTT":"COMPLETED","DCSREAS":"COMPLETED","EOSDT":"2014-06-28","DTHFL":null,"DTHDT":null,"DTHDY":null,"DTHCAUS":null},{"STUDYID":"CDISCPILOT01","USUBJID":"01-710-1257","SUBJID":"1257","SITEID":"710","SITEGR1":"900","COUNTRY":"USA","ARM":"Screen Failure","ARMCD":"Scrnfail","ACTARM":"Screen Failure","ACTARMCD":"Scrnfail","TRT01P":"Screen Failure","TRT01PN":null,"TRT01A":"Screen Failure","TRT01AN":null,"TRTP":"Screen Failure","TRTSDT":null,"TRTEDT":null,"TRTDURD":null,"AGE":85,"AGEU":"YEARS","AGEGR1":">80","AGEGR1N":3,"SEX":"F","RACE":"WHITE","ETHNIC":"NOT HISPANIC OR LATINO","WEIGHTBL":null,"HEIGHTBL":null,"BMIBL":null,"RANDFL":"Y","ITTFL":"Y","SAFFL":"N","EFFFL":"N","COMPLFL":"N","EOSSTT":"DISCONTINUED","DCSREAS":"SCREEN FAILURE","EOSDT":"2013-11-29","DTHFL":null,"DTHDT":null,"DTHDY":null,"DTHCAUS":null},{"STUDYID":"CDISCPILOT01","USUBJID":"01-710-1264","SUBJID":"1264","SITEID":"710","SITEGR1":"900","COUNTRY":"USA","ARM":"Placebo","ARMCD":"Pbo","ACTARM":"Placebo","ACTARMCD":"Pbo","TRT01P":"Placebo","TRT01PN":null,"TRT01A":"Placebo","TRT01AN":null,"TRTP":"Placebo","TRTSDT":"2013-06-13","TRTEDT":"2013-10-11","TRTDURD":121,"AGE":78,"AGEU":"YEARS","AGEGR1":"65-80","AGEGR1N":2,"SEX":"M","RACE":"WHITE","ETHNIC":"NOT HISPANIC OR LATINO","WEIGHTBL":81.65,"HEIGHTBL":167.64,"BMIBL":29.1,"RANDFL":"Y","ITTFL":"Y","SAFFL":"Y","EFFFL":"N","COMPLFL":"N","EOSSTT":"DISCONTINUED","DCSREAS":"ADVERSE EVENT","EOSDT":"2013-10-12","DTHFL":null,"DTHDT":null,"DTHDY":null,"DTHCAUS":null},{"STUDYID":"CDISCPILOT01","USUBJID":"01-710-1270","SUBJID":"1270","SITEID":"710","SITEGR1":"900","COUNTRY":"USA","ARM":"Xanomeline Low Dose","ARMCD":"Xan_Lo","ACTARM":"Xanomeline Low Dose","ACTARMCD":"Xan_Lo","TRT01P":"Xanomeline Low Dose","TRT01PN":null,"TRT01A":"Xanomeline Low Dose","TRT01AN":null,"TRTP":"Xanomeline Low Dose","TRTSDT":"2014-02-12","TRTEDT":"2014-03-01","TRTDURD":18,"AGE":83,"AGEU":"YEARS","AGEGR1":">80","AGEGR1N":3,"SEX":"F","RACE":"WHITE","ETHNIC":"NOT HISPANIC OR LATINO","WEIGHTBL":57.61,"HEIGHTBL":149.86,"BMIBL":25.7,"RANDFL":"Y","ITTFL":"Y","SAFFL":"Y","EFFFL":"N","COMPLFL":"N","EOSSTT":"DISCONTINUED","DCSREAS":"ADVERSE EVENT","EOSDT":"2014-03-01","DTHFL":null,"DTHDT":null,"DTHDY":null,"DTHCAUS":null},{"STUDYID":"CDISCPILOT01","USUBJID":"01-710-1271","SUBJID":"1271","SITEID":"710","SITEGR1":"900","COUNTRY":"USA","ARM":"Placebo","ARMCD":"Pbo","ACTARM":"Placebo","ACTARMCD":"Pbo","TRT01P":"Placebo","TRT01PN":null,"TRT01A":"Placebo","TRT01AN":null,"TRTP":"Placebo","TRTSDT":"2012-09-27","TRTEDT":"2012-11-21","TRTDURD":56,"AGE":86,"AGEU":"YEARS","AGEGR1":">80","AGEGR1N":3,"SEX":"F","RACE":"WHITE","ETHNIC":"NOT HISPANIC OR LATINO","WEIGHTBL":47.63,"HEIGHTBL":149.86,"BMIBL":21.2,"RANDFL":"Y","ITTFL":"Y","SAFFL":"Y","EFFFL":"N","COMPLFL":"N","EOSSTT":"DISCONTINUED","DCSREAS":"ADVERSE EVENT","EOSDT":"2012-12-02","DTHFL":null,"DTHDT":null,"DTHDY":null,"DTHCAUS":null},{"STUDYID":"CDISCPILOT01","USUBJID":"01-710-1278","SUBJID":"1278","SITEID":"710","SITEGR1":"900","COUNTRY":"USA","ARM":"Xanomeline High Dose","ARMCD":"Xan_Hi","ACTARM":"Xanomeline High Dose","ACTARMCD":"Xan_Hi","TRT01P":"Xanomeline High Dose","TRT01PN":null,"TRT01A":"Xanomeline High Dose","TRT01AN":null,"TRTP":"Xanomeline High Dose","TRTSDT":"2012-12-24","TRTEDT":"2013-02-26","TRTDURD":65,"AGE":81,"AGEU":"YEARS","AGEGR1":">80","AGEGR1N":3,"SEX":"M","RACE":"WHITE","ETHNIC":"NOT HISPANIC OR LATINO","WEIGHTBL":71.67,"HEIGHTBL":177.8,"BMIBL":22.7,"RANDFL":"Y","ITTFL":"Y","SAFFL":"Y","EFFFL":"N","COMPLFL":"N","EOSSTT":"DISCONTINUED","DCSREAS":"ADVERSE EVENT","EOSDT":"2013-03-03","DTHFL":null,"DTHDT":null,"DTHDY":null,"DTHCAUS":null},{"STUDYID":"CDISCPILOT01","USUBJID":"01-710-1300","SUBJID":"1300","SITEID":"710","SITEGR1":"900","COUNTRY":"USA","ARM":"Xanomeline Low Dose","ARMCD":"Xan_Lo","ACTARM":"Xanomeline Low Dose","ACTARMCD":"Xan_Lo","TRT01P":"Xanomeline Low Dose","TRT01PN":null,"TRT01A":"Xanomeline Low Dose","TRT01AN":null,"TRTP":"Xanomeline Low Dose","TRTSDT":"2012-12-15","TRTEDT":"2013-02-15","TRTDURD":63,"AGE":78,"AGEU":"YEARS","AGEGR1":"65-80","AGEGR1N":2,"SEX":"F","RACE":"WHITE","ETHNIC":"NOT HISPANIC OR LATINO","WEIGHTBL":46.72,"HEIGHTBL":152.4,"BMIBL":20.1,"RANDFL":"Y","ITTFL":"Y","SAFFL":"Y","EFFFL":"N","COMPLFL":"N","EOSSTT":"DISCONTINUED","DCSREAS":"ADVERSE EVENT","EOSDT":"2013-02-19","DTHFL":null,"DTHDT":null,"DTHDY":null,"DTHCAUS":null},{"STUDYID":"CDISCPILOT01","USUBJID":"01-710-1314","SUBJID":"1314","SITEID":"710","SITEGR1":"900","COUNTRY":"USA","ARM":"Placebo","ARMCD":"Pbo","ACTARM":"Placebo","ACTARMCD":"Pbo","TRT01P":"Placebo","TRT01PN":null,"TRT01A":"Placebo","TRT01AN":null,"TRTP":"Placebo","TRTSDT":"2013-04-24","TRTEDT":"2013-05-23","TRTDURD":30,"AGE":78,"AGEU":"YEARS","AGEGR1":"65-80","AGEGR1N":2,"SEX":"F","RACE":"WHITE","ETHNIC":"NOT HISPANIC OR LATINO","WEIGHTBL":42.64,"HEIGHTBL":137.16,"BMIBL":22.7,"RANDFL":"Y","ITTFL":"Y","SAFFL":"Y","EFFFL":"N","COMPLFL":"N","EOSSTT":"DISCONTINUED","DCSREAS":"WITHDRAWAL BY SUBJECT","EOSDT":"2013-05-25","DTHFL":null,"DTHDT":null,"DTHDY":null,"DTHCAUS":null},{"STUDYID":"CDISCPILOT01","USUBJID":"01-710-1315","SUBJID":"1315","SITEID":"710","SITEGR1":"900","COUNTRY":"USA","ARM":"Placebo","ARMCD":"Pbo","ACTARM":"Placebo","ACTARMCD":"Pbo","TRT01P":"Placebo","TRT01PN":null,"TRT01A":"Placebo","TRT01AN":null,"TRTP":"Placebo","TRTSDT":"2013-02-27","TRTEDT":"2013-07-06","TRTDURD":130,"AGE":83,"AGEU":"YEARS","AGEGR1":">80","AGEGR1N":3,"SEX":"F","RACE":"WHITE","ETHNIC":"NOT HISPANIC OR LATINO","WEIGHTBL":56.25,"HEIGHTBL":152.4,"BMIBL":24.2,"RANDFL":"Y","ITTFL":"Y","SAFFL":"Y","EFFFL":"N","COMPLFL":"N","EOSSTT":"DISCONTINUED","DCSREAS":"ADVERSE EVENT","EOSDT":"2013-07-16","DTHFL":null,"DTHDT":null,"DTHDY":null,"DTHCAUS":null},{"STUDYID":"CDISCPILOT01","USUBJID":"01-710-1337","SUBJID":"1337","SITEID":"710","SITEGR1":"900","COUNTRY":"USA","ARM":"Screen Failure","ARMCD":"Scrnfail","ACTARM":"Screen Failure","ACTARMCD":"Scrnfail","TRT01P":"Screen Failure","TRT01PN":null,"TRT01A":"Screen Failure","TRT01AN":null,"TRTP":"Screen Failure","TRTSDT":null,"TRTEDT":null,"TRTDURD":null,"AGE":73,"AGEU":"YEARS","AGEGR1":"65-80","AGEGR1N":2,"SEX":"M","RACE":"WHITE","ETHNIC":"NOT HISPANIC OR LATINO","WEIGHTBL":null,"HEIGHTBL":null,"BMIBL":null,"RANDFL":"Y","ITTFL":"Y","SAFFL":"N","EFFFL":"N","COMPLFL":"N","EOSSTT":"DISCONTINUED","DCSREAS":"SCREEN FAILURE","EOSDT":"2013-12-30","DTHFL":null,"DTHDT":null,"DTHDY":null,"DTHCAUS":null},{"STUDYID":"CDISCPILOT01","USUBJID":"01-710-1354","SUBJID":"1354","SITEID":"710","SITEGR1":"900","COUNTRY":"USA","ARM":"Xanomeline High Dose","ARMCD":"Xan_Hi","ACTARM":"Xanomeline High Dose","ACTARMCD":"Xan_Hi","TRT01P":"Xanomeline High Dose","TRT01PN":null,"TRT01A":"Xanomeline High Dose","TRT01AN":null,"TRTP":"Xanomeline High Dose","TRTSDT":"2012-11-11","TRTEDT":"2013-05-01","TRTDURD":172,"AGE":73,"AGEU":"YEARS","AGEGR1":"65-80","AGEGR1N":2,"SEX":"M","RACE":"WHITE","ETHNIC":"NOT HISPANIC OR LATINO","WEIGHTBL":89.36,"HEIGHTBL":182.88,"BMIBL":26.7,"RANDFL":"Y","ITTFL":"Y","SAFFL":"Y","EFFFL":"N","COMPLFL":"Y","EOSSTT":"COMPLETED","DCSREAS":"COMPLETED","EOSDT":"2013-05-01","DTHFL":null,"DTHDT":null,"DTHDY":null,"DTHCAUS":null},{"STUDYID":"CDISCPILOT01","USUBJID":"01-710-1358","SUBJID":"1358","SITEID":"710","SITEGR1":"900","COUNTRY":"USA","ARM":"Xanomeline Low Dose","ARMCD":"Xan_Lo","ACTARM":"Xanomeline Low Dose","ACTARMCD":"Xan_Lo","TRT01P":"Xanomeline Low Dose","TRT01PN":null,"TRT01A":"Xanomeline Low Dose","TRT01AN":null,"TRTP":"Xanomeline Low Dose","TRTSDT":"2012-09-17","TRTEDT":"2013-02-09","TRTDURD":146,"AGE":82,"AGEU":"YEARS","AGEGR1":">80","AGEGR1N":3,"SEX":"M","RACE":"WHITE","ETHNIC":"NOT HISPANIC OR LATINO","WEIGHTBL":82.1,"HEIGHTBL":162.56,"BMIBL":31.1,"RANDFL":"Y","ITTFL":"Y","SAFFL":"Y","EFFFL":"N","COMPLFL":"N","EOSSTT":"DISCONTINUED","DCSREAS":"WITHDRAWAL BY SUBJECT","EOSDT":"2013-03-12","DTHFL":null,"DTHDT":null,"DTHDY":null,"DTHCAUS":null},{"STUDYID":"CDISCPILOT01","USUBJID":"01-710-1368","SUBJID":"1368","SITEID":"710","SITEGR1":"900","COUNTRY":"USA","ARM":"Placebo","ARMCD":"Pbo","ACTARM":"Placebo","ACTARMCD":"Pbo","TRT01P":"Placebo","TRT01PN":null,"TRT01A":"Placebo","TRT01AN":null,"TRTP":"Placebo","TRTSDT":"2013-10-23","TRTEDT":"2014-04-24","TRTDURD":184,"AGE":88,"AGEU":"YEARS","AGEGR1":">80","AGEGR1N":3,"SEX":"F","RACE":"WHITE","ETHNIC":"NOT HISPANIC OR LATINO","WEIGHTBL":34.02,"HEIGHTBL":147.32,"BMIBL":15.7,"RANDFL":"Y","ITTFL":"Y","SAFFL":"Y","EFFFL":"N","COMPLFL":"Y","EOSSTT":"COMPLETED","DCSREAS":"COMPLETED","EOSDT":"2014-04-24","DTHFL":null,"DTHDT":null,"DTHDY":null,"DTHCAUS":null},{"STUDYID":"CDISCPILOT01","USUBJID":"01-710-1376","SUBJID":"1376","SITEID":"710","SITEGR1":"900","COUNTRY":"USA","ARM":"Screen Failure","ARMCD":"Scrnfail","ACTARM":"Screen Failure","ACTARMCD":"Scrnfail","TRT01P":"Screen Failure","TRT01PN":null,"TRT01A":"Screen Failure","TRT01AN":null,"TRTP":"Screen Failure","TRTSDT":null,"TRTEDT":null,"TRTDURD":null,"AGE":89,"AGEU":"YEARS","AGEGR1":">80","AGEGR1N":3,"SEX":"F","RACE":"WHITE","ETHNIC":"NOT HISPANIC OR LATINO","WEIGHTBL":null,"HEIGHTBL":null,"BMIBL":null,"RANDFL":"Y","ITTFL":"Y","SAFFL":"N","EFFFL":"N","COMPLFL":"N","EOSSTT":"DISCONTINUED","DCSREAS":"SCREEN FAILURE","EOSDT":"2014-04-21","DTHFL":null,"DTHDT":null,"DTHDY":null,"DTHCAUS":null},{"STUDYID":"CDISCPILOT01","USUBJID":"01-710-1380","SUBJID":"1380","SITEID":"710","SITEGR1":"900","COUNTRY":"USA","ARM":"Screen Failure","ARMCD":"Scrnfail","ACTARM":"Screen Failure","ACTARMCD":"Scrnfail","TRT01P":"Screen Failure","TRT01PN":null,"TRT01A":"Screen Failure","TRT01AN":null,"TRTP":"Screen Failure","TRTSDT":null,"TRTEDT":null,"TRTDURD":null,"AGE":80,"AGEU":"YEARS","AGEGR1":"65-80","AGEGR1N":2,"SEX":"F","RACE":"WHITE","ETHNIC":"NOT HISPANIC OR LATINO","WEIGHTBL":null,"HEIGHTBL":null,"BMIBL":null,"RANDFL":"Y","ITTFL":"Y","SAFFL":"N","EFFFL":"N","COMPLFL":"N","EOSSTT":"DISCONTINUED","DCSREAS":"SCREEN FAILURE","EOSDT":"2013-06-02","DTHFL":null,"DTHDT":null,"DTHDY":null,"DTHCAUS":null},{"STUDYID":"CDISCPILOT01","USUBJID":"01-710-1385","SUBJID":"1385","SITEID":"710","SITEGR1":"900","COUNTRY":"USA","ARM":"Xanomeline Low Dose","ARMCD":"Xan_Lo","ACTARM":"Xanomeline Low Dose","ACTARMCD":"Xan_Lo","TRT01P":"Xanomeline Low Dose","TRT01PN":null,"TRT01A":"Xanomeline Low Dose","TRT01AN":null,"TRTP":"Xanomeline Low Dose","TRTSDT":"2012-10-29","TRTEDT":"2013-02-18","TRTDURD":113,"AGE":77,"AGEU":"YEARS","AGEGR1":"65-80","AGEGR1N":2,"SEX":"M","RACE":"WHITE","ETHNIC":"NOT HISPANIC OR LATINO","WEIGHTBL":84.37,"HEIGHTBL":182.88,"BMIBL":25.2,"RANDFL":"Y","ITTFL":"Y","SAFFL":"Y","EFFFL":"N","COMPLFL":"N","EOSSTT":"DISCONTINUED","DCSREAS":"ADVERSE EVENT","EOSDT":"2013-02-18","DTHFL":null,"DTHDT":null,"DTHDY":null,"DTHCAUS":null},{"STUDYID":"CDISCPILOT01","USUBJID":"01-710-1408","SUBJID":"1408","SITEID":"710","SITEGR1":"900","COUNTRY":"USA","ARM":"Xanomeline High Dose","ARMCD":"Xan_Hi","ACTARM":"Xanomeline High Dose","ACTARMCD":"Xan_Hi","TRT01P":"Xanomeline High Dose","TRT01PN":null,"TRT01A":"Xanomeline High Dose","TRT01AN":null,"TRTP":"Xanomeline High Dose","TRTSDT":"2013-01-05","TRTEDT":"2013-07-12","TRTDURD":189,"AGE":80,"AGEU":"YEARS","AGEGR1":"65-80","AGEGR1N":2,"SEX":"M","RACE":"WHITE","ETHNIC":"NOT HISPANIC OR LATINO","WEIGHTBL":107.96,"HEIGHTBL":177.8,"BMIBL":34.2,"RANDFL":"Y","ITTFL":"Y","SAFFL":"Y","EFFFL":"N","COMPLFL":"Y","EOSSTT":"COMPLETED","DCSREAS":"COMPLETED","EOSDT":"2013-07-12","DTHFL":null,"DTHDT":null,"DTHDY":null,"DTHCAUS":null},{"STUDYID":"CDISCPILOT01","USUBJID":"01-710-1443","SUBJID":"1443","SITEID":"710","SITEGR1":"900","COUNTRY":"USA","ARM":"Screen Failure","ARMCD":"Scrnfail","ACTARM":"Screen Failure","ACTARMCD":"Scrnfail","TRT01P":"Screen Failure","TRT01PN":null,"TRT01A":"Screen Failure","TRT01AN":null,"TRTP":"Screen Failure","TRTSDT":null,"TRTEDT":null,"TRTDURD":null,"AGE":88,"AGEU":"YEARS","AGEGR1":">80","AGEGR1N":3,"SEX":"F","RACE":"WHITE","ETHNIC":"NOT HISPANIC OR LATINO","WEIGHTBL":null,"HEIGHTBL":null,"BMIBL":null,"RANDFL":"Y","ITTFL":"Y","SAFFL":"N","EFFFL":"N","COMPLFL":"N","EOSSTT":"DISCONTINUED","DCSREAS":"SCREEN FAILURE","EOSDT":"2013-12-13","DTHFL":null,"DTHDT":null,"DTHDY":null,"DTHCAUS":null},{"STUDYID":"CDISCPILOT01","USUBJID":"01-711-1012","SUBJID":"1012","SITEID":"711","SITEGR1":"900","COUNTRY":"USA","ARM":"Xanomeline High Dose","ARMCD":"Xan_Hi","ACTARM":"Xanomeline High Dose","ACTARMCD":"Xan_Hi","TRT01P":"Xanomeline High Dose","TRT01PN":null,"TRT01A":"Xanomeline High Dose","TRT01AN":null,"TRTP":"Xanomeline High Dose","TRTSDT":"2013-04-03","TRTEDT":"2013-04-29","TRTDURD":27,"AGE":67,"AGEU":"YEARS","AGEGR1":"65-80","AGEGR1N":2,"SEX":"F","RACE":"WHITE","ETHNIC":"NOT HISPANIC OR LATINO","WEIGHTBL":80.97,"HEIGHTBL":170.18,"BMIBL":28,"RANDFL":"Y","ITTFL":"Y","SAFFL":"Y","EFFFL":"N","COMPLFL":"N","EOSSTT":"DISCONTINUED","DCSREAS":"ADVERSE EVENT","EOSDT":"2013-05-02","DTHFL":null,"DTHDT":null,"DTHDY":null,"DTHCAUS":null},{"STUDYID":"CDISCPILOT01","USUBJID":"01-711-1022","SUBJID":"1022","SITEID":"711","SITEGR1":"900","COUNTRY":"USA","ARM":"Screen Failure","ARMCD":"Scrnfail","ACTARM":"Screen Failure","ACTARMCD":"Scrnfail","TRT01P":"Screen Failure","TRT01PN":null,"TRT01A":"Screen Failure","TRT01AN":null,"TRTP":"Screen Failure","TRTSDT":null,"TRTEDT":null,"TRTDURD":null,"AGE":86,"AGEU":"YEARS","AGEGR1":">80","AGEGR1N":3,"SEX":"F","RACE":"WHITE","ETHNIC":"NOT HISPANIC OR LATINO","WEIGHTBL":null,"HEIGHTBL":null,"BMIBL":null,"RANDFL":"Y","ITTFL":"Y","SAFFL":"N","EFFFL":"N","COMPLFL":"N","EOSSTT":"DISCONTINUED","DCSREAS":"SCREEN FAILURE","EOSDT":"2014-03-17","DTHFL":null,"DTHDT":null,"DTHDY":null,"DTHCAUS":null},{"STUDYID":"CDISCPILOT01","USUBJID":"01-711-1036","SUBJID":"1036","SITEID":"711","SITEGR1":"900","COUNTRY":"USA","ARM":"Placebo","ARMCD":"Pbo","ACTARM":"Placebo","ACTARMCD":"Pbo","TRT01P":"Placebo","TRT01PN":null,"TRT01A":"Placebo","TRT01AN":null,"TRTP":"Placebo","TRTSDT":"2012-07-29","TRTEDT":"2013-02-10","TRTDURD":197,"AGE":70,"AGEU":"YEARS","AGEGR1":"65-80","AGEGR1N":2,"SEX":"M","RACE":"BLACK OR AFRICAN AMERICAN","ETHNIC":"NOT HISPANIC OR LATINO","WEIGHTBL":69.17,"HEIGHTBL":171.96,"BMIBL":23.4,"RANDFL":"Y","ITTFL":"Y","SAFFL":"Y","EFFFL":"N","COMPLFL":"Y","EOSSTT":"COMPLETED","DCSREAS":"COMPLETED","EOSDT":"2013-02-10","DTHFL":null,"DTHDT":null,"DTHDY":null,"DTHCAUS":null},{"STUDYID":"CDISCPILOT01","USUBJID":"01-711-1143","SUBJID":"1143","SITEID":"711","SITEGR1":"900","COUNTRY":"USA","ARM":"Xanomeline Low Dose","ARMCD":"Xan_Lo","ACTARM":"Xanomeline Low Dose","ACTARMCD":"Xan_Lo","TRT01P":"Xanomeline Low Dose","TRT01PN":null,"TRT01A":"Xanomeline Low Dose","TRT01AN":null,"TRTP":"Xanomeline Low Dose","TRTSDT":"2013-04-03","TRTEDT":"2013-05-30","TRTDURD":58,"AGE":76,"AGEU":"YEARS","AGEGR1":"65-80","AGEGR1N":2,"SEX":"F","RACE":"WHITE","ETHNIC":"NOT HISPANIC OR LATINO","WEIGHTBL":64.64,"HEIGHTBL":163.07,"BMIBL":24.3,"RANDFL":"Y","ITTFL":"Y","SAFFL":"Y","EFFFL":"N","COMPLFL":"N","EOSSTT":"DISCONTINUED","DCSREAS":"ADVERSE EVENT","EOSDT":"2013-06-01","DTHFL":null,"DTHDT":null,"DTHDY":null,"DTHCAUS":null},{"STUDYID":"CDISCPILOT01","USUBJID":"01-711-1163","SUBJID":"1163","SITEID":"711","SITEGR1":"900","COUNTRY":"USA","ARM":"Screen Failure","ARMCD":"Scrnfail","ACTARM":"Screen Failure","ACTARMCD":"Scrnfail","TRT01P":"Screen Failure","TRT01PN":null,"TRT01A":"Screen Failure","TRT01AN":null,"TRTP":"Screen Failure","TRTSDT":null,"TRTEDT":null,"TRTDURD":null,"AGE":74,"AGEU":"YEARS","AGEGR1":"65-80","AGEGR1N":2,"SEX":"F","RACE":"BLACK OR AFRICAN AMERICAN","ETHNIC":"NOT HISPANIC OR LATINO","WEIGHTBL":null,"HEIGHTBL":null,"BMIBL":null,"RANDFL":"Y","ITTFL":"Y","SAFFL":"N","EFFFL":"N","COMPLFL":"N","EOSSTT":"DISCONTINUED","DCSREAS":"SCREEN FAILURE","EOSDT":"2012-11-08","DTHFL":null,"DTHDT":null,"DTHDY":null,"DTHCAUS":null},{"STUDYID":"CDISCPILOT01","USUBJID":"01-711-1173","SUBJID":"1173","SITEID":"711","SITEGR1":"900","COUNTRY":"USA","ARM":"Screen Failure","ARMCD":"Scrnfail","ACTARM":"Screen Failure","ACTARMCD":"Scrnfail","TRT01P":"Screen Failure","TRT01PN":null,"TRT01A":"Screen Failure","TRT01AN":null,"TRTP":"Screen Failure","TRTSDT":null,"TRTEDT":null,"TRTDURD":null,"AGE":62,"AGEU":"YEARS","AGEGR1":"<65","AGEGR1N":1,"SEX":"M","RACE":"WHITE","ETHNIC":"NOT HISPANIC OR LATINO","WEIGHTBL":null,"HEIGHTBL":null,"BMIBL":null,"RANDFL":"Y","ITTFL":"Y","SAFFL":"N","EFFFL":"N","COMPLFL":"N","EOSSTT":"DISCONTINUED","DCSREAS":"SCREEN FAILURE","EOSDT":"2012-10-04","DTHFL":null,"DTHDT":null,"DTHDY":null,"DTHCAUS":null},{"STUDYID":"CDISCPILOT01","USUBJID":"01-711-1226","SUBJID":"1226","SITEID":"711","SITEGR1":"900","COUNTRY":"USA","ARM":"Screen Failure","ARMCD":"Scrnfail","ACTARM":"Screen Failure","ACTARMCD":"Scrnfail","TRT01P":"Screen Failure","TRT01PN":null,"TRT01A":"Screen Failure","TRT01AN":null,"TRTP":"Screen Failure","TRTSDT":null,"TRTEDT":null,"TRTDURD":null,"AGE":74,"AGEU":"YEARS","AGEGR1":"65-80","AGEGR1N":2,"SEX":"F","RACE":"WHITE","ETHNIC":"NOT HISPANIC OR LATINO","WEIGHTBL":null,"HEIGHTBL":null,"BMIBL":null,"RANDFL":"Y","ITTFL":"Y","SAFFL":"N","EFFFL":"N","COMPLFL":"N","EOSSTT":"DISCONTINUED","DCSREAS":"SCREEN FAILURE","EOSDT":"2013-10-24","DTHFL":null,"DTHDT":null,"DTHDY":null,"DTHCAUS":null},{"STUDYID":"CDISCPILOT01","USUBJID":"01-711-1251","SUBJID":"1251","SITEID":"711","SITEGR1":"900","COUNTRY":"USA","ARM":"Screen Failure","ARMCD":"Scrnfail","ACTARM":"Screen Failure","ACTARMCD":"Scrnfail","TRT01P":"Screen Failure","TRT01PN":null,"TRT01A":"Screen Failure","TRT01AN":null,"TRTP":"Screen Failure","TRTSDT":null,"TRTEDT":null,"TRTDURD":null,"AGE":82,"AGEU":"YEARS","AGEGR1":">80","AGEGR1N":3,"SEX":"M","RACE":"WHITE","ETHNIC":"NOT HISPANIC OR LATINO","WEIGHTBL":null,"HEIGHTBL":null,"BMIBL":null,"RANDFL":"Y","ITTFL":"Y","SAFFL":"N","EFFFL":"N","COMPLFL":"N","EOSSTT":"DISCONTINUED","DCSREAS":"SCREEN FAILURE","EOSDT":"2014-02-28","DTHFL":null,"DTHDT":null,"DTHDY":null,"DTHCAUS":null},{"STUDYID":"CDISCPILOT01","USUBJID":"01-711-1283","SUBJID":"1283","SITEID":"711","SITEGR1":"900","COUNTRY":"USA","ARM":"Screen Failure","ARMCD":"Scrnfail","ACTARM":"Screen Failure","ACTARMCD":"Scrnfail","TRT01P":"Screen Failure","TRT01PN":null,"TRT01A":"Screen Failure","TRT01AN":null,"TRTP":"Screen Failure","TRTSDT":null,"TRTEDT":null,"TRTDURD":null,"AGE":75,"AGEU":"YEARS","AGEGR1":"65-80","AGEGR1N":2,"SEX":"F","RACE":"BLACK OR AFRICAN AMERICAN","ETHNIC":"NOT HISPANIC OR LATINO","WEIGHTBL":null,"HEIGHTBL":null,"BMIBL":null,"RANDFL":"Y","ITTFL":"Y","SAFFL":"N","EFFFL":"N","COMPLFL":"N","EOSSTT":"DISCONTINUED","DCSREAS":"SCREEN FAILURE","EOSDT":"2014-03-27","DTHFL":null,"DTHDT":null,"DTHDY":null,"DTHCAUS":null},{"STUDYID":"CDISCPILOT01","USUBJID":"01-711-1284","SUBJID":"1284","SITEID":"711","SITEGR1":"900","COUNTRY":"USA","ARM":"Screen Failure","ARMCD":"Scrnfail","ACTARM":"Screen Failure","ACTARMCD":"Scrnfail","TRT01P":"Screen Failure","TRT01PN":null,"TRT01A":"Screen Failure","TRT01AN":null,"TRTP":"Screen Failure","TRTSDT":null,"TRTEDT":null,"TRTDURD":null,"AGE":77,"AGEU":"YEARS","AGEGR1":"65-80","AGEGR1N":2,"SEX":"F","RACE":"WHITE","ETHNIC":"NOT HISPANIC OR LATINO","WEIGHTBL":null,"HEIGHTBL":null,"BMIBL":null,"RANDFL":"Y","ITTFL":"Y","SAFFL":"N","EFFFL":"N","COMPLFL":"N","EOSSTT":"DISCONTINUED","DCSREAS":"SCREEN FAILURE","EOSDT":"2013-08-05","DTHFL":null,"DTHDT":null,"DTHDY":null,"DTHCAUS":null},{"STUDYID":"CDISCPILOT01","USUBJID":"01-711-1290","SUBJID":"1290","SITEID":"711","SITEGR1":"900","COUNTRY":"USA","ARM":"Screen Failure","ARMCD":"Scrnfail","ACTARM":"Screen Failure","ACTARMCD":"Scrnfail","TRT01P":"Screen Failure","TRT01PN":null,"TRT01A":"Screen Failure","TRT01AN":null,"TRTP":"Screen Failure","TRTSDT":null,"TRTEDT":null,"TRTDURD":null,"AGE":61,"AGEU":"YEARS","AGEGR1":"<65","AGEGR1N":1,"SEX":"F","RACE":"WHITE","ETHNIC":"NOT HISPANIC OR LATINO","WEIGHTBL":null,"HEIGHTBL":null,"BMIBL":null,"RANDFL":"Y","ITTFL":"Y","SAFFL":"N","EFFFL":"N","COMPLFL":"N","EOSSTT":"DISCONTINUED","DCSREAS":"SCREEN FAILURE","EOSDT":"2013-12-20","DTHFL":null,"DTHDT":null,"DTHDY":null,"DTHCAUS":null},{"STUDYID":"CDISCPILOT01","USUBJID":"01-711-1433","SUBJID":"1433","SITEID":"711","SITEGR1":"900","COUNTRY":"USA","ARM":"Xanomeline High Dose","ARMCD":"Xan_Hi","ACTARM":"Xanomeline Low Dose","ACTARMCD":"Xan_Lo","TRT01P":"Xanomeline High Dose","TRT01PN":null,"TRT01A":"Xanomeline Low Dose","TRT01AN":null,"TRTP":"Xanomeline High Dose","TRTSDT":"2013-01-27","TRTEDT":"2013-02-05","TRTDURD":10,"AGE":84,"AGEU":"YEARS","AGEGR1":">80","AGEGR1N":3,"SEX":"F","RACE":"WHITE","ETHNIC":"NOT HISPANIC OR LATINO","WEIGHTBL":51.94,"HEIGHTBL":157.48,"BMIBL":20.9,"RANDFL":"Y","ITTFL":"Y","SAFFL":"Y","EFFFL":"N","COMPLFL":"N","EOSSTT":"DISCONTINUED","DCSREAS":"ADVERSE EVENT","EOSDT":"2013-02-06","DTHFL":null,"DTHDT":null,"DTHDY":null,"DTHCAUS":null},{"STUDYID":"CDISCPILOT01","USUBJID":"01-713-1043","SUBJID":"1043","SITEID":"713","SITEGR1":"900","COUNTRY":"USA","ARM":"Xanomeline Low Dose","ARMCD":"Xan_Lo","ACTARM":"Xanomeline Low Dose","ACTARMCD":"Xan_Lo","TRT01P":"Xanomeline Low Dose","TRT01PN":null,"TRT01A":"Xanomeline Low Dose","TRT01AN":null,"TRTP":"Xanomeline Low Dose","TRTSDT":"2013-09-15","TRTEDT":"2014-03-24","TRTDURD":191,"AGE":78,"AGEU":"YEARS","AGEGR1":"65-80","AGEGR1N":2,"SEX":"F","RACE":"WHITE","ETHNIC":"NOT HISPANIC OR LATINO","WEIGHTBL":51.26,"HEIGHTBL":165.1,"BMIBL":18.8,"RANDFL":"Y","ITTFL":"Y","SAFFL":"Y","EFFFL":"N","COMPLFL":"Y","EOSSTT":"COMPLETED","DCSREAS":"COMPLETED","EOSDT":"2014-03-24","DTHFL":null,"DTHDT":null,"DTHDY":null,"DTHCAUS":null},{"STUDYID":"CDISCPILOT01","USUBJID":"01-713-1073","SUBJID":"1073","SITEID":"713","SITEGR1":"900","COUNTRY":"USA","ARM":"Xanomeline Low Dose","ARMCD":"Xan_Lo","ACTARM":"Xanomeline Low Dose","ACTARMCD":"Xan_Lo","TRT01P":"Xanomeline Low Dose","TRT01PN":null,"TRT01A":"Xanomeline Low Dose","TRT01AN":null,"TRTP":"Xanomeline Low Dose","TRTSDT":"2014-03-30","TRTEDT":"2014-10-05","TRTDURD":190,"AGE":74,"AGEU":"YEARS","AGEGR1":"65-80","AGEGR1N":2,"SEX":"F","RACE":"BLACK OR AFRICAN AMERICAN","ETHNIC":"NOT HISPANIC OR LATINO","WEIGHTBL":56.93,"HEIGHTBL":167.64,"BMIBL":20.3,"RANDFL":"Y","ITTFL":"Y","SAFFL":"Y","EFFFL":"N","COMPLFL":"Y","EOSSTT":"COMPLETED","DCSREAS":"COMPLETED","EOSDT":"2014-10-05","DTHFL":null,"DTHDT":null,"DTHDY":null,"DTHCAUS":null},{"STUDYID":"CDISCPILOT01","USUBJID":"01-713-1106","SUBJID":"1106","SITEID":"713","SITEGR1":"900","COUNTRY":"USA","ARM":"Xanomeline High Dose","ARMCD":"Xan_Hi","ACTARM":"Xanomeline High Dose","ACTARMCD":"Xan_Hi","TRT01P":"Xanomeline High Dose","TRT01PN":null,"TRT01A":"Xanomeline High Dose","TRT01AN":null,"TRTP":"Xanomeline High Dose","TRTSDT":"2012-10-31","TRTEDT":"2013-05-06","TRTDURD":188,"AGE":74,"AGEU":"YEARS","AGEGR1":"65-80","AGEGR1N":2,"SEX":"M","RACE":"WHITE","ETHNIC":"NOT HISPANIC OR LATINO","WEIGHTBL":53.07,"HEIGHTBL":164.8,"BMIBL":19.5,"RANDFL":"Y","ITTFL":"Y","SAFFL":"Y","EFFFL":"N","COMPLFL":"Y","EOSSTT":"COMPLETED","DCSREAS":"COMPLETED","EOSDT":"2013-05-06","DTHFL":null,"DTHDT":null,"DTHDY":null,"DTHCAUS":null},{"STUDYID":"CDISCPILOT01","USUBJID":"01-713-1141","SUBJID":"1141","SITEID":"713","SITEGR1":"900","COUNTRY":"USA","ARM":"Xanomeline High Dose","ARMCD":"Xan_Hi","ACTARM":"Xanomeline High Dose","ACTARMCD":"Xan_Hi","TRT01P":"Xanomeline High Dose","TRT01PN":null,"TRT01A":"Xanomeline High Dose","TRT01AN":null,"TRTP":"Xanomeline High Dose","TRTSDT":"2013-05-31","TRTEDT":"2013-07-01","TRTDURD":32,"AGE":79,"AGEU":"YEARS","AGEGR1":"65-80","AGEGR1N":2,"SEX":"M","RACE":"WHITE","ETHNIC":"NOT HISPANIC OR LATINO","WEIGHTBL":68.04,"HEIGHTBL":170,"BMIBL":23.5,"RANDFL":"Y","ITTFL":"Y","SAFFL":"Y","EFFFL":"N","COMPLFL":"N","EOSSTT":"DISCONTINUED","DCSREAS":"ADVERSE EVENT","EOSDT":"2013-08-06","DTHFL":null,"DTHDT":null,"DTHDY":null,"DTHCAUS":null},{"STUDYID":"CDISCPILOT01","USUBJID":"01-713-1179","SUBJID":"1179","SITEID":"713","SITEGR1":"900","COUNTRY":"USA","ARM":"Placebo","ARMCD":"Pbo","ACTARM":"Placebo","ACTARMCD":"Pbo","TRT01P":"Placebo","TRT01PN":null,"TRT01A":"Placebo","TRT01AN":null,"TRTP":"Placebo","TRTSDT":"2013-08-09","TRTEDT":"2014-02-05","TRTDURD":181,"AGE":64,"AGEU":"YEARS","AGEGR1":"<65","AGEGR1N":1,"SEX":"F","RACE":"WHITE","ETHNIC":"NOT HISPANIC OR LATINO","WEIGHTBL":55.34,"HEIGHTBL":165.1,"BMIBL":20.3,"RANDFL":"Y","ITTFL":"Y","SAFFL":"Y","EFFFL":"N","COMPLFL":"Y","EOSSTT":"COMPLETED","DCSREAS":"COMPLETED","EOSDT":"2014-02-05","DTHFL":null,"DTHDT":null,"DTHDY":null,"DTHCAUS":null},{"STUDYID":"CDISCPILOT01","USUBJID":"01-713-1209","SUBJID":"1209","SITEID":"713","SITEGR1":"900","COUNTRY":"USA","ARM":"Xanomeline High Dose","ARMCD":"Xan_Hi","ACTARM":"Xanomeline High Dose","ACTARMCD":"Xan_Hi","TRT01P":"Xanomeline High Dose","TRT01PN":null,"TRT01A":"Xanomeline High Dose","TRT01AN":null,"TRTP":"Xanomeline High Dose","TRTSDT":"2013-05-27","TRTEDT":"2013-11-22","TRTDURD":180,"AGE":77,"AGEU":"YEARS","AGEGR1":"65-80","AGEGR1N":2,"SEX":"F","RACE":"WHITE","ETHNIC":"NOT HISPANIC OR LATINO","WEIGHTBL":52.16,"HEIGHTBL":165.1,"BMIBL":19.1,"RANDFL":"Y","ITTFL":"Y","SAFFL":"Y","EFFFL":"N","COMPLFL":"Y","EOSSTT":"COMPLETED","DCSREAS":"COMPLETED","EOSDT":"2013-11-22","DTHFL":null,"DTHDT":null,"DTHDY":null,"DTHCAUS":null},{"STUDYID":"CDISCPILOT01","USUBJID":"01-713-1256","SUBJID":"1256","SITEID":"713","SITEGR1":"900","COUNTRY":"USA","ARM":"Placebo","ARMCD":"Pbo","ACTARM":"Placebo","ACTARMCD":"Pbo","TRT01P":"Placebo","TRT01PN":null,"TRT01A":"Placebo","TRT01AN":null,"TRTP":"Placebo","TRTSDT":"2012-09-19","TRTEDT":"2013-03-25","TRTDURD":188,"AGE":71,"AGEU":"YEARS","AGEGR1":"65-80","AGEGR1N":2,"SEX":"M","RACE":"WHITE","ETHNIC":"NOT HISPANIC OR LATINO","WEIGHTBL":77.11,"HEIGHTBL":180.34,"BMIBL":23.7,"RANDFL":"Y","ITTFL":"Y","SAFFL":"Y","EFFFL":"N","COMPLFL":"Y","EOSSTT":"COMPLETED","DCSREAS":"COMPLETED","EOSDT":"2013-03-25","DTHFL":null,"DTHDT":null,"DTHDY":null,"DTHCAUS":null},{"STUDYID":"CDISCPILOT01","USUBJID":"01-713-1269","SUBJID":"1269","SITEID":"713","SITEGR1":"900","COUNTRY":"USA","ARM":"Placebo","ARMCD":"Pbo","ACTARM":"Placebo","ACTARMCD":"Pbo","TRT01P":"Placebo","TRT01PN":null,"TRT01A":"Placebo","TRT01AN":null,"TRTP":"Placebo","TRTSDT":"2014-01-27","TRTEDT":"2014-07-28","TRTDURD":183,"AGE":73,"AGEU":"YEARS","AGEGR1":"65-80","AGEGR1N":2,"SEX":"M","RACE":"WHITE","ETHNIC":"NOT HISPANIC OR LATINO","WEIGHTBL":75.3,"HEIGHTBL":185.42,"BMIBL":21.9,"RANDFL":"Y","ITTFL":"Y","SAFFL":"Y","EFFFL":"N","COMPLFL":"Y","EOSSTT":"COMPLETED","DCSREAS":"COMPLETED","EOSDT":"2014-07-28","DTHFL":null,"DTHDT":null,"DTHDY":null,"DTHCAUS":null},{"STUDYID":"CDISCPILOT01","USUBJID":"01-713-1448","SUBJID":"1448","SITEID":"713","SITEGR1":"900","COUNTRY":"USA","ARM":"Xanomeline Low Dose","ARMCD":"Xan_Lo","ACTARM":"Xanomeline Low Dose","ACTARMCD":"Xan_Lo","TRT01P":"Xanomeline Low Dose","TRT01PN":null,"TRT01A":"Xanomeline Low Dose","TRT01AN":null,"TRTP":"Xanomeline Low Dose","TRTSDT":"2014-01-19","TRTEDT":"2014-05-16","TRTDURD":118,"AGE":71,"AGEU":"YEARS","AGEGR1":"65-80","AGEGR1N":2,"SEX":"F","RACE":"WHITE","ETHNIC":"NOT HISPANIC OR LATINO","WEIGHTBL":78.47,"HEIGHTBL":175.26,"BMIBL":25.5,"RANDFL":"Y","ITTFL":"Y","SAFFL":"Y","EFFFL":"N","COMPLFL":"N","EOSSTT":"DISCONTINUED","DCSREAS":"ADVERSE EVENT","EOSDT":"2014-05-17","DTHFL":null,"DTHDT":null,"DTHDY":null,"DTHCAUS":null},{"STUDYID":"CDISCPILOT01","USUBJID":"01-714-1035","SUBJID":"1035","SITEID":"714","SITEGR1":"900","COUNTRY":"USA","ARM":"Placebo","ARMCD":"Pbo","ACTARM":"Placebo","ACTARMCD":"Pbo","TRT01P":"Placebo","TRT01PN":null,"TRT01A":"Placebo","TRT01AN":null,"TRTP":"Placebo","TRTSDT":"2014-04-17","TRTEDT":"2014-10-16","TRTDURD":183,"AGE":88,"AGEU":"YEARS","AGEGR1":">80","AGEGR1N":3,"SEX":"F","RACE":"WHITE","ETHNIC":"NOT HISPANIC OR LATINO","WEIGHTBL":54.43,"HEIGHTBL":148.59,"BMIBL":24.7,"RANDFL":"Y","ITTFL":"Y","SAFFL":"Y","EFFFL":"N","COMPLFL":"Y","EOSSTT":"COMPLETED","DCSREAS":"COMPLETED","EOSDT":"2014-10-16","DTHFL":null,"DTHDT":null,"DTHDY":null,"DTHCAUS":null},{"STUDYID":"CDISCPILOT01","USUBJID":"01-714-1068","SUBJID":"1068","SITEID":"714","SITEGR1":"900","COUNTRY":"USA","ARM":"Xanomeline Low Dose","ARMCD":"Xan_Lo","ACTARM":"Xanomeline Low Dose","ACTARMCD":"Xan_Lo","TRT01P":"Xanomeline Low Dose","TRT01PN":null,"TRT01A":"Xanomeline Low Dose","TRT01AN":null,"TRTP":"Xanomeline Low Dose","TRTSDT":"2013-08-08","TRTEDT":"2013-10-08","TRTDURD":62,"AGE":79,"AGEU":"YEARS","AGEGR1":"65-80","AGEGR1N":2,"SEX":"F","RACE":"WHITE","ETHNIC":"NOT HISPANIC OR LATINO","WEIGHTBL":54.43,"HEIGHTBL":153.67,"BMIBL":23,"RANDFL":"Y","ITTFL":"Y","SAFFL":"Y","EFFFL":"N","COMPLFL":"N","EOSSTT":"DISCONTINUED","DCSREAS":"ADVERSE EVENT","EOSDT":"2013-10-16","DTHFL":null,"DTHDT":null,"DTHDY":null,"DTHCAUS":null},{"STUDYID":"CDISCPILOT01","USUBJID":"01-714-1195","SUBJID":"1195","SITEID":"714","SITEGR1":"900","COUNTRY":"USA","ARM":"Xanomeline Low Dose","ARMCD":"Xan_Lo","ACTARM":"Xanomeline Low Dose","ACTARMCD":"Xan_Lo","TRT01P":"Xanomeline Low Dose","TRT01PN":null,"TRT01A":"Xanomeline Low Dose","TRT01AN":null,"TRTP":"Xanomeline Low Dose","TRTSDT":"2013-04-26","TRTEDT":"2013-10-23","TRTDURD":181,"AGE":75,"AGEU":"YEARS","AGEGR1":"65-80","AGEGR1N":2,"SEX":"M","RACE":"WHITE","ETHNIC":"NOT HISPANIC OR LATINO","WEIGHTBL":85.73,"HEIGHTBL":172.72,"BMIBL":28.7,"RANDFL":"Y","ITTFL":"Y","SAFFL":"Y","EFFFL":"N","COMPLFL":"Y","EOSSTT":"COMPLETED","DCSREAS":"COMPLETED","EOSDT":"2013-10-23","DTHFL":null,"DTHDT":null,"DTHDY":null,"DTHCAUS":null},{"STUDYID":"CDISCPILOT01","USUBJID":"01-714-1288","SUBJID":"1288","SITEID":"714","SITEGR1":"900","COUNTRY":"USA","ARM":"Xanomeline High Dose","ARMCD":"Xan_Hi","ACTARM":"Xanomeline High Dose","ACTARMCD":"Xan_Hi","TRT01P":"Xanomeline High Dose","TRT01PN":null,"TRT01A":"Xanomeline High Dose","TRT01AN":null,"TRTP":"Xanomeline High Dose","TRTSDT":"2013-12-04","TRTEDT":"2014-06-17","TRTDURD":196,"AGE":77,"AGEU":"YEARS","AGEGR1":"65-80","AGEGR1N":2,"SEX":"M","RACE":"BLACK OR AFRICAN AMERICAN","ETHNIC":"NOT HISPANIC OR LATINO","WEIGHTBL":49.44,"HEIGHTBL":162.56,"BMIBL":18.7,"RANDFL":"Y","ITTFL":"Y","SAFFL":"Y","EFFFL":"N","COMPLFL":"Y","EOSSTT":"COMPLETED","DCSREAS":"COMPLETED","EOSDT":"2014-06-17","DTHFL":null,"DTHDT":null,"DTHDY":null,"DTHCAUS":null},{"STUDYID":"CDISCPILOT01","USUBJID":"01-714-1375","SUBJID":"1375","SITEID":"714","SITEGR1":"900","COUNTRY":"USA","ARM":"Placebo","ARMCD":"Pbo","ACTARM":"Placebo","ACTARMCD":"Pbo","TRT01P":"Placebo","TRT01PN":null,"TRT01A":"Placebo","TRT01AN":null,"TRTP":"Placebo","TRTSDT":"2013-02-26","TRTEDT":"2013-09-07","TRTDURD":194,"AGE":78,"AGEU":"YEARS","AGEGR1":"65-80","AGEGR1N":2,"SEX":"F","RACE":"WHITE","ETHNIC":"NOT HISPANIC OR LATINO","WEIGHTBL":57.61,"HEIGHTBL":149.86,"BMIBL":25.7,"RANDFL":"Y","ITTFL":"Y","SAFFL":"Y","EFFFL":"N","COMPLFL":"Y","EOSSTT":"COMPLETED","DCSREAS":"COMPLETED","EOSDT":"2013-09-07","DTHFL":null,"DTHDT":null,"DTHDY":null,"DTHCAUS":null},{"STUDYID":"CDISCPILOT01","USUBJID":"01-714-1425","SUBJID":"1425","SITEID":"714","SITEGR1":"900","COUNTRY":"USA","ARM":"Xanomeline High Dose","ARMCD":"Xan_Hi","ACTARM":"Xanomeline Low Dose","ACTARMCD":"Xan_Lo","TRT01P":"Xanomeline High Dose","TRT01PN":null,"TRT01A":"Xanomeline Low Dose","TRT01AN":null,"TRTP":"Xanomeline High Dose","TRTSDT":"2013-08-15","TRTEDT":"2013-08-19","TRTDURD":5,"AGE":81,"AGEU":"YEARS","AGEGR1":">80","AGEGR1N":3,"SEX":"M","RACE":"WHITE","ETHNIC":"NOT HISPANIC OR LATINO","WEIGHTBL":91.63,"HEIGHTBL":177.8,"BMIBL":29,"RANDFL":"Y","ITTFL":"Y","SAFFL":"Y","EFFFL":"N","COMPLFL":"N","EOSSTT":"DISCONTINUED","DCSREAS":"STUDY TERMINATED BY SPONSOR","EOSDT":"2013-08-22","DTHFL":null,"DTHDT":null,"DTHDY":null,"DTHCAUS":null},{"STUDYID":"CDISCPILOT01","USUBJID":"01-715-1085","SUBJID":"1085","SITEID":"715","SITEGR1":"900","COUNTRY":"USA","ARM":"Xanomeline Low Dose","ARMCD":"Xan_Lo","ACTARM":"Xanomeline Low Dose","ACTARMCD":"Xan_Lo","TRT01P":"Xanomeline Low Dose","TRT01PN":null,"TRT01A":"Xanomeline Low Dose","TRT01AN":null,"TRTP":"Xanomeline Low Dose","TRTSDT":"2013-02-16","TRTEDT":"2013-08-18","TRTDURD":184,"AGE":77,"AGEU":"YEARS","AGEGR1":"65-80","AGEGR1N":2,"SEX":"F","RACE":"WHITE","ETHNIC":"NOT HISPANIC OR LATINO","WEIGHTBL":57.61,"HEIGHTBL":162.56,"BMIBL":21.8,"RANDFL":"Y","ITTFL":"Y","SAFFL":"Y","EFFFL":"N","COMPLFL":"Y","EOSSTT":"COMPLETED","DCSREAS":"COMPLETED","EOSDT":"2013-08-18","DTHFL":null,"DTHDT":null,"DTHDY":null,"DTHCAUS":null},{"STUDYID":"CDISCPILOT01","USUBJID":"01-715-1107","SUBJID":"1107","SITEID":"715","SITEGR1":"900","COUNTRY":"USA","ARM":"Xanomeline Low Dose","ARMCD":"Xan_Lo","ACTARM":"Xanomeline Low Dose","ACTARMCD":"Xan_Lo","TRT01P":"Xanomeline Low Dose","TRT01PN":null,"TRT01A":"Xanomeline Low Dose","TRT01AN":null,"TRTP":"Xanomeline Low Dose","TRTSDT":"2013-02-26","TRTEDT":"2013-05-07","TRTDURD":71,"AGE":65,"AGEU":"YEARS","AGEGR1":"65-80","AGEGR1N":2,"SEX":"M","RACE":"WHITE","ETHNIC":"NOT HISPANIC OR LATINO","WEIGHTBL":69.4,"HEIGHTBL":172.72,"BMIBL":23.3,"RANDFL":"Y","ITTFL":"Y","SAFFL":"Y","EFFFL":"N","COMPLFL":"N","EOSSTT":"DISCONTINUED","DCSREAS":"ADVERSE EVENT","EOSDT":"2013-05-13","DTHFL":null,"DTHDT":null,"DTHDY":null,"DTHCAUS":null},{"STUDYID":"CDISCPILOT01","USUBJID":"01-715-1134","SUBJID":"1134","SITEID":"715","SITEGR1":"900","COUNTRY":"USA","ARM":"Screen Failure","ARMCD":"Scrnfail","ACTARM":"Screen Failure","ACTARMCD":"Scrnfail","TRT01P":"Screen Failure","TRT01PN":null,"TRT01A":"Screen Failure","TRT01AN":null,"TRTP":"Screen Failure","TRTSDT":null,"TRTEDT":null,"TRTDURD":null,"AGE":50,"AGEU":"YEARS","AGEGR1":"<65","AGEGR1N":1,"SEX":"F","RACE":"WHITE","ETHNIC":"NOT HISPANIC OR LATINO","WEIGHTBL":null,"HEIGHTBL":null,"BMIBL":null,"RANDFL":"Y","ITTFL":"Y","SAFFL":"N","EFFFL":"N","COMPLFL":"N","EOSSTT":"DISCONTINUED","DCSREAS":"SCREEN FAILURE","EOSDT":"2014-04-17","DTHFL":null,"DTHDT":null,"DTHDY":null,"DTHCAUS":null},{"STUDYID":"CDISCPILOT01","USUBJID":"01-715-1155","SUBJID":"1155","SITEID":"715","SITEGR1":"900","COUNTRY":"USA","ARM":"Placebo","ARMCD":"Pbo","ACTARM":"Placebo","ACTARMCD":"Pbo","TRT01P":"Placebo","TRT01PN":null,"TRT01A":"Placebo","TRT01AN":null,"TRTP":"Placebo","TRTSDT":"2013-12-13","TRTEDT":"2014-01-25","TRTDURD":44,"AGE":59,"AGEU":"YEARS","AGEGR1":"<65","AGEGR1N":1,"SEX":"F","RACE":"WHITE","ETHNIC":"NOT HISPANIC OR LATINO","WEIGHTBL":63.5,"HEIGHTBL":165.1,"BMIBL":23.3,"RANDFL":"Y","ITTFL":"Y","SAFFL":"Y","EFFFL":"N","COMPLFL":"N","EOSSTT":"DISCONTINUED","DCSREAS":"WITHDRAWAL BY SUBJECT","EOSDT":"2014-04-26","DTHFL":null,"DTHDT":null,"DTHDY":null,"DTHCAUS":null},{"STUDYID":"CDISCPILOT01","USUBJID":"01-715-1207","SUBJID":"1207","SITEID":"715","SITEGR1":"900","COUNTRY":"USA","ARM":"Placebo","ARMCD":"Pbo","ACTARM":"Placebo","ACTARMCD":"Pbo","TRT01P":"Placebo","TRT01PN":null,"TRT01A":"Placebo","TRT01AN":null,"TRTP":"Placebo","TRTSDT":"2012-11-18","TRTEDT":"2013-05-27","TRTDURD":191,"AGE":78,"AGEU":"YEARS","AGEGR1":"65-80","AGEGR1N":2,"SEX":"F","RACE":"WHITE","ETHNIC":"NOT HISPANIC OR LATINO","WEIGHTBL":49.44,"HEIGHTBL":152.4,"BMIBL":21.3,"RANDFL":"Y","ITTFL":"Y","SAFFL":"Y","EFFFL":"N","COMPLFL":"Y","EOSSTT":"COMPLETED","DCSREAS":"COMPLETED","EOSDT":"2013-06-01","DTHFL":null,"DTHDT":null,"DTHDY":null,"DTHCAUS":null},{"STUDYID":"CDISCPILOT01","USUBJID":"01-715-1225","SUBJID":"1225","SITEID":"715","SITEGR1":"900","COUNTRY":"USA","ARM":"Screen Failure","ARMCD":"Scrnfail","ACTARM":"Screen Failure","ACTARMCD":"Scrnfail","TRT01P":"Screen Failure","TRT01PN":null,"TRT01A":"Screen Failure","TRT01AN":null,"TRTP":"Screen Failure","TRTSDT":null,"TRTEDT":null,"TRTDURD":null,"AGE":77,"AGEU":"YEARS","AGEGR1":"65-80","AGEGR1N":2,"SEX":"F","RACE":"WHITE","ETHNIC":"NOT HISPANIC OR LATINO","WEIGHTBL":null,"HEIGHTBL":null,"BMIBL":null,"RANDFL":"Y","ITTFL":"Y","SAFFL":"N","EFFFL":"N","COMPLFL":"N","EOSSTT":"DISCONTINUED","DCSREAS":"SCREEN FAILURE","EOSDT":"2013-01-22","DTHFL":null,"DTHDT":null,"DTHDY":null,"DTHCAUS":null},{"STUDYID":"CDISCPILOT01","USUBJID":"01-715-1319","SUBJID":"1319","SITEID":"715","SITEGR1":"900","COUNTRY":"USA","ARM":"Xanomeline High Dose","ARMCD":"Xan_Hi","ACTARM":"Xanomeline High Dose","ACTARMCD":"Xan_Hi","TRT01P":"Xanomeline High Dose","TRT01PN":null,"TRT01A":"Xanomeline High Dose","TRT01AN":null,"TRTP":"Xanomeline High Dose","TRTSDT":"2013-02-17","TRTEDT":"2013-03-05","TRTDURD":17,"AGE":65,"AGEU":"YEARS","AGEGR1":"65-80","AGEGR1N":2,"SEX":"M","RACE":"WHITE","ETHNIC":"NOT HISPANIC OR LATINO","WEIGHTBL":75.75,"HEIGHTBL":172.72,"BMIBL":25.4,"RANDFL":"Y","ITTFL":"Y","SAFFL":"Y","EFFFL":"N","COMPLFL":"N","EOSSTT":"DISCONTINUED","DCSREAS":"WITHDRAWAL BY SUBJECT","EOSDT":"2013-03-18","DTHFL":null,"DTHDT":null,"DTHDY":null,"DTHCAUS":null},{"STUDYID":"CDISCPILOT01","USUBJID":"01-715-1321","SUBJID":"1321","SITEID":"715","SITEGR1":"900","COUNTRY":"USA","ARM":"Xanomeline High Dose","ARMCD":"Xan_Hi","ACTARM":"Xanomeline High Dose","ACTARMCD":"Xan_Hi","TRT01P":"Xanomeline High Dose","TRT01PN":null,"TRT01A":"Xanomeline High Dose","TRT01AN":null,"TRTP":"Xanomeline High Dose","TRTSDT":"2014-02-11","TRTEDT":"2014-04-21","TRTDURD":70,"AGE":75,"AGEU":"YEARS","AGEGR1":"65-80","AGEGR1N":2,"SEX":"F","RACE":"WHITE","ETHNIC":"NOT HISPANIC OR LATINO","WEIGHTBL":59.88,"HEIGHTBL":162.56,"BMIBL":22.7,"RANDFL":"Y","ITTFL":"Y","SAFFL":"Y","EFFFL":"N","COMPLFL":"N","EOSSTT":"DISCONTINUED","DCSREAS":"ADVERSE EVENT","EOSDT":"2014-04-22","DTHFL":null,"DTHDT":null,"DTHDY":null,"DTHCAUS":null},{"STUDYID":"CDISCPILOT01","USUBJID":"01-715-1333","SUBJID":"1333","SITEID":"715","SITEGR1":"900","COUNTRY":"USA","ARM":"Screen Failure","ARMCD":"Scrnfail","ACTARM":"Screen Failure","ACTARMCD":"Scrnfail","TRT01P":"Screen Failure","TRT01PN":null,"TRT01A":"Screen Failure","TRT01AN":null,"TRTP":"Screen Failure","TRTSDT":null,"TRTEDT":null,"TRTDURD":null,"AGE":75,"AGEU":"YEARS","AGEGR1":"65-80","AGEGR1N":2,"SEX":"F","RACE":"WHITE","ETHNIC":"NOT HISPANIC OR LATINO","WEIGHTBL":null,"HEIGHTBL":null,"BMIBL":null,"RANDFL":"Y","ITTFL":"Y","SAFFL":"N","EFFFL":"N","COMPLFL":"N","EOSSTT":"DISCONTINUED","DCSREAS":"SCREEN FAILURE","EOSDT":"2013-06-03","DTHFL":null,"DTHDT":null,"DTHDY":null,"DTHCAUS":null},{"STUDYID":"CDISCPILOT01","USUBJID":"01-715-1397","SUBJID":"1397","SITEID":"715","SITEGR1":"900","COUNTRY":"USA","ARM":"Placebo","ARMCD":"Pbo","ACTARM":"Placebo","ACTARMCD":"Pbo","TRT01P":"Placebo","TRT01PN":null,"TRT01A":"Placebo","TRT01AN":null,"TRTP":"Placebo","TRTSDT":"2013-04-03","TRTEDT":"2013-10-02","TRTDURD":183,"AGE":76,"AGEU":"YEARS","AGEGR1":"65-80","AGEGR1N":2,"SEX":"F","RACE":"WHITE","ETHNIC":"NOT HISPANIC OR LATINO","WEIGHTBL":67.13,"HEIGHTBL":152.4,"BMIBL":28.9,"RANDFL":"Y","ITTFL":"Y","SAFFL":"Y","EFFFL":"N","COMPLFL":"Y","EOSSTT":"COMPLETED","DCSREAS":"COMPLETED","EOSDT":"2013-10-03","DTHFL":null,"DTHDT":null,"DTHDY":null,"DTHCAUS":null},{"STUDYID":"CDISCPILOT01","USUBJID":"01-715-1405","SUBJID":"1405","SITEID":"715","SITEGR1":"900","COUNTRY":"USA","ARM":"Xanomeline Low Dose","ARMCD":"Xan_Lo","ACTARM":"Xanomeline Low Dose","ACTARMCD":"Xan_Lo","TRT01P":"Xanomeline Low Dose","TRT01PN":null,"TRT01A":"Xanomeline Low Dose","TRT01AN":null,"TRTP":"Xanomeline Low Dose","TRTSDT":"2013-07-06","TRTEDT":"2013-07-07","TRTDURD":2,"AGE":69,"AGEU":"YEARS","AGEGR1":"65-80","AGEGR1N":2,"SEX":"M","RACE":"WHITE","ETHNIC":"NOT HISPANIC OR LATINO","WEIGHTBL":69.85,"HEIGHTBL":180.34,"BMIBL":21.5,"RANDFL":"Y","ITTFL":"Y","SAFFL":"Y","EFFFL":"N","COMPLFL":"N","EOSSTT":"DISCONTINUED","DCSREAS":"ADVERSE EVENT","EOSDT":"2013-07-13","DTHFL":null,"DTHDT":null,"DTHDY":null,"DTHCAUS":null},{"STUDYID":"CDISCPILOT01","USUBJID":"01-715-1407","SUBJID":"1407","SITEID":"715","SITEGR1":"900","COUNTRY":"USA","ARM":"Screen Failure","ARMCD":"Scrnfail","ACTARM":"Screen Failure","ACTARMCD":"Scrnfail","TRT01P":"Screen Failure","TRT01PN":null,"TRT01A":"Screen Failure","TRT01AN":null,"TRTP":"Screen Failure","TRTSDT":null,"TRTEDT":null,"TRTDURD":null,"AGE":73,"AGEU":"YEARS","AGEGR1":"65-80","AGEGR1N":2,"SEX":"F","RACE":"WHITE","ETHNIC":"NOT HISPANIC OR LATINO","WEIGHTBL":null,"HEIGHTBL":null,"BMIBL":null,"RANDFL":"Y","ITTFL":"Y","SAFFL":"N","EFFFL":"N","COMPLFL":"N","EOSSTT":"DISCONTINUED","DCSREAS":"SCREEN FAILURE","EOSDT":"2012-10-24","DTHFL":null,"DTHDT":null,"DTHDY":null,"DTHCAUS":null},{"STUDYID":"CDISCPILOT01","USUBJID":"01-716-1003","SUBJID":"1003","SITEID":"716","SITEGR1":"900","COUNTRY":"USA","ARM":"Screen Failure","ARMCD":"Scrnfail","ACTARM":"Screen Failure","ACTARMCD":"Scrnfail","TRT01P":"Screen Failure","TRT01PN":null,"TRT01A":"Screen Failure","TRT01AN":null,"TRTP":"Screen Failure","TRTSDT":null,"TRTEDT":null,"TRTDURD":null,"AGE":79,"AGEU":"YEARS","AGEGR1":"65-80","AGEGR1N":2,"SEX":"M","RACE":"WHITE","ETHNIC":"HISPANIC OR LATINO","WEIGHTBL":null,"HEIGHTBL":null,"BMIBL":null,"RANDFL":"Y","ITTFL":"Y","SAFFL":"N","EFFFL":"N","COMPLFL":"N","EOSSTT":"DISCONTINUED","DCSREAS":"SCREEN FAILURE","EOSDT":"2014-03-29","DTHFL":null,"DTHDT":null,"DTHDY":null,"DTHCAUS":null},{"STUDYID":"CDISCPILOT01","USUBJID":"01-716-1024","SUBJID":"1024","SITEID":"716","SITEGR1":"900","COUNTRY":"USA","ARM":"Placebo","ARMCD":"Pbo","ACTARM":"Placebo","ACTARMCD":"Pbo","TRT01P":"Placebo","TRT01PN":null,"TRT01A":"Placebo","TRT01AN":null,"TRTP":"Placebo","TRTSDT":"2012-07-09","TRTEDT":"2013-01-20","TRTDURD":196,"AGE":87,"AGEU":"YEARS","AGEGR1":">80","AGEGR1N":3,"SEX":"F","RACE":"WHITE","ETHNIC":"NOT HISPANIC OR LATINO","WEIGHTBL":54.43,"HEIGHTBL":154.94,"BMIBL":22.7,"RANDFL":"Y","ITTFL":"Y","SAFFL":"Y","EFFFL":"N","COMPLFL":"Y","EOSSTT":"COMPLETED","DCSREAS":"COMPLETED","EOSDT":"2013-01-20","DTHFL":null,"DTHDT":null,"DTHDY":null,"DTHCAUS":null},{"STUDYID":"CDISCPILOT01","USUBJID":"01-716-1026","SUBJID":"1026","SITEID":"716","SITEGR1":"900","COUNTRY":"USA","ARM":"Placebo","ARMCD":"Pbo","ACTARM":"Placebo","ACTARMCD":"Pbo","TRT01P":"Placebo","TRT01PN":null,"TRT01A":"Placebo","TRT01AN":null,"TRTP":"Placebo","TRTSDT":"2014-04-02","TRTEDT":"2014-10-16","TRTDURD":198,"AGE":73,"AGEU":"YEARS","AGEGR1":"65-80","AGEGR1N":2,"SEX":"F","RACE":"WHITE","ETHNIC":"NOT HISPANIC OR LATINO","WEIGHTBL":79.83,"HEIGHTBL":154.94,"BMIBL":33.3,"RANDFL":"Y","ITTFL":"Y","SAFFL":"Y","EFFFL":"N","COMPLFL":"Y","EOSSTT":"COMPLETED","DCSREAS":"COMPLETED","EOSDT":"2014-10-16","DTHFL":null,"DTHDT":null,"DTHDY":null,"DTHCAUS":null},{"STUDYID":"CDISCPILOT01","USUBJID":"01-716-1030","SUBJID":"1030","SITEID":"716","SITEGR1":"900","COUNTRY":"USA","ARM":"Xanomeline High Dose","ARMCD":"Xan_Hi","ACTARM":"Xanomeline Low Dose","ACTARMCD":"Xan_Lo","TRT01P":"Xanomeline High Dose","TRT01PN":null,"TRT01A":"Xanomeline Low Dose","TRT01AN":null,"TRTP":"Xanomeline High Dose","TRTSDT":"2013-12-28","TRTEDT":"2014-01-02","TRTDURD":6,"AGE":83,"AGEU":"YEARS","AGEGR1":">80","AGEGR1N":3,"SEX":"F","RACE":"WHITE","ETHNIC":"NOT HISPANIC OR LATINO","WEIGHTBL":75.3,"HEIGHTBL":150.62,"BMIBL":33.2,"RANDFL":"Y","ITTFL":"Y","SAFFL":"Y","EFFFL":"N","COMPLFL":"N","EOSSTT":"DISCONTINUED","DCSREAS":"WITHDRAWAL BY SUBJECT","EOSDT":"2014-01-10","DTHFL":null,"DTHDT":null,"DTHDY":null,"DTHCAUS":null},{"STUDYID":"CDISCPILOT01","USUBJID":"01-716-1044","SUBJID":"1044","SITEID":"716","SITEGR1":"900","COUNTRY":"USA","ARM":"Placebo","ARMCD":"Pbo","ACTARM":"Placebo","ACTARMCD":"Pbo","TRT01P":"Placebo","TRT01PN":null,"TRT01A":"Placebo","TRT01AN":null,"TRTP":"Placebo","TRTSDT":"2013-04-27","TRTEDT":"2013-11-03","TRTDURD":191,"AGE":74,"AGEU":"YEARS","AGEGR1":"65-80","AGEGR1N":2,"SEX":"M","RACE":"WHITE","ETHNIC":"NOT HISPANIC OR LATINO","WEIGHTBL":86.18,"HEIGHTBL":172.72,"BMIBL":28.9,"RANDFL":"Y","ITTFL":"Y","SAFFL":"Y","EFFFL":"N","COMPLFL":"Y","EOSSTT":"COMPLETED","DCSREAS":"COMPLETED","EOSDT":"2013-11-03","DTHFL":null,"DTHDT":null,"DTHDY":null,"DTHCAUS":null},{"STUDYID":"CDISCPILOT01","USUBJID":"01-716-1061","SUBJID":"1061","SITEID":"716","SITEGR1":"900","COUNTRY":"USA","ARM":"Screen Failure","ARMCD":"Scrnfail","ACTARM":"Screen Failure","ACTARMCD":"Scrnfail","TRT01P":"Screen Failure","TRT01PN":null,"TRT01A":"Screen Failure","TRT01AN":null,"TRTP":"Screen Failure","TRTSDT":null,"TRTEDT":null,"TRTDURD":null,"AGE":81,"AGEU":"YEARS","AGEGR1":">80","AGEGR1N":3,"SEX":"M","RACE":"WHITE","ETHNIC":"NOT HISPANIC OR LATINO","WEIGHTBL":null,"HEIGHTBL":null,"BMIBL":null,"RANDFL":"Y","ITTFL":"Y","SAFFL":"N","EFFFL":"N","COMPLFL":"N","EOSSTT":"DISCONTINUED","DCSREAS":"SCREEN FAILURE","EOSDT":"2014-02-14","DTHFL":null,"DTHDT":null,"DTHDY":null,"DTHCAUS":null},{"STUDYID":"CDISCPILOT01","USUBJID":"01-716-1063","SUBJID":"1063","SITEID":"716","SITEGR1":"900","COUNTRY":"USA","ARM":"Xanomeline Low Dose","ARMCD":"Xan_Lo","ACTARM":"Xanomeline Low Dose","ACTARMCD":"Xan_Lo","TRT01P":"Xanomeline Low Dose","TRT01PN":null,"TRT01A":"Xanomeline Low Dose","TRT01AN":null,"TRTP":"Xanomeline Low Dose","TRTSDT":"2013-05-09","TRTEDT":"2013-08-25","TRTDURD":109,"AGE":80,"AGEU":"YEARS","AGEGR1":"65-80","AGEGR1N":2,"SEX":"M","RACE":"WHITE","ETHNIC":"NOT HISPANIC OR LATINO","WEIGHTBL":72.58,"HEIGHTBL":160.02,"BMIBL":28.3,"RANDFL":"Y","ITTFL":"Y","SAFFL":"Y","EFFFL":"N","COMPLFL":"N","EOSSTT":"DISCONTINUED","DCSREAS":"ADVERSE EVENT","EOSDT":"2013-08-28","DTHFL":null,"DTHDT":null,"DTHDY":null,"DTHCAUS":null},{"STUDYID":"CDISCPILOT01","USUBJID":"01-716-1071","SUBJID":"1071","SITEID":"716","SITEGR1":"900","COUNTRY":"USA","ARM":"Xanomeline High Dose","ARMCD":"Xan_Hi","ACTARM":"Xanomeline High Dose","ACTARMCD":"Xan_Hi","TRT01P":"Xanomeline High Dose","TRT01PN":null,"TRT01A":"Xanomeline High Dose","TRT01AN":null,"TRTP":"Xanomeline High Dose","TRTSDT":"2013-06-08","TRTEDT":"2013-08-01","TRTDURD":55,"AGE":78,"AGEU":"YEARS","AGEGR1":"65-80","AGEGR1N":2,"SEX":"F","RACE":"WHITE","ETHNIC":"NOT HISPANIC OR LATINO","WEIGHTBL":76.66,"HEIGHTBL":154.94,"BMIBL":31.9,"RANDFL":"Y","ITTFL":"Y","SAFFL":"Y","EFFFL":"N","COMPLFL":"N","EOSSTT":"DISCONTINUED","DCSREAS":"ADVERSE EVENT","EOSDT":"2013-08-01","DTHFL":null,"DTHDT":null,"DTHDY":null,"DTHCAUS":null},{"STUDYID":"CDISCPILOT01","USUBJID":"01-716-1094","SUBJID":"1094","SITEID":"716","SITEGR1":"900","COUNTRY":"USA","ARM":"Xanomeline Low Dose","ARMCD":"Xan_Lo","ACTARM":"Xanomeline Low Dose","ACTARMCD":"Xan_Lo","TRT01P":"Xanomeline Low Dose","TRT01PN":null,"TRT01A":"Xanomeline Low Dose","TRT01AN":null,"TRTP":"Xanomeline Low Dose","TRTSDT":"2012-12-19","TRTEDT":"2013-01-24","TRTDURD":37,"AGE":82,"AGEU":"YEARS","AGEGR1":">80","AGEGR1N":3,"SEX":"M","RACE":"WHITE","ETHNIC":"NOT HISPANIC OR LATINO","WEIGHTBL":80.74,"HEIGHTBL":168.91,"BMIBL":28.3,"RANDFL":"Y","ITTFL":"Y","SAFFL":"Y","EFFFL":"N","COMPLFL":"N","EOSSTT":"DISCONTINUED","DCSREAS":"ADVERSE EVENT","EOSDT":"2013-01-26","DTHFL":null,"DTHDT":null,"DTHDY":null,"DTHCAUS":null},{"STUDYID":"CDISCPILOT01","USUBJID":"01-716-1103","SUBJID":"1103","SITEID":"716","SITEGR1":"900","COUNTRY":"USA","ARM":"Xanomeline Low Dose","ARMCD":"Xan_Lo","ACTARM":"Xanomeline Low Dose","ACTARMCD":"Xan_Lo","TRT01P":"Xanomeline Low Dose","TRT01PN":null,"TRT01A":"Xanomeline Low Dose","TRT01AN":null,"TRTP":"Xanomeline Low Dose","TRTSDT":"2014-03-20","TRTEDT":"2014-09-20","TRTDURD":185,"AGE":79,"AGEU":"YEARS","AGEGR1":"65-80","AGEGR1N":2,"SEX":"M","RACE":"WHITE","ETHNIC":"NOT HISPANIC OR LATINO","WEIGHTBL":69.85,"HEIGHTBL":165.1,"BMIBL":25.6,"RANDFL":"Y","ITTFL":"Y","SAFFL":"Y","EFFFL":"N","COMPLFL":"Y","EOSSTT":"COMPLETED","DCSREAS":"COMPLETED","EOSDT":"2014-09-20","DTHFL":null,"DTHDT":null,"DTHDY":null,"DTHCAUS":null},{"STUDYID":"CDISCPILOT01","USUBJID":"01-716-1108","SUBJID":"1108","SITEID":"716","SITEGR1":"900","COUNTRY":"USA","ARM":"Placebo","ARMCD":"Pbo","ACTARM":"Placebo","ACTARMCD":"Pbo","TRT01P":"Placebo","TRT01PN":null,"TRT01A":"Placebo","TRT01AN":null,"TRTP":"Placebo","TRTSDT":"2013-02-12","TRTEDT":"2013-08-10","TRTDURD":180,"AGE":86,"AGEU":"YEARS","AGEGR1":">80","AGEGR1N":3,"SEX":"F","RACE":"WHITE","ETHNIC":"NOT HISPANIC OR LATINO","WEIGHTBL":52.62,"HEIGHTBL":142.24,"BMIBL":26,"RANDFL":"Y","ITTFL":"Y","SAFFL":"Y","EFFFL":"N","COMPLFL":"Y","EOSSTT":"COMPLETED","DCSREAS":"COMPLETED","EOSDT":"2013-08-10","DTHFL":null,"DTHDT":null,"DTHDY":null,"DTHCAUS":null},{"STUDYID":"CDISCPILOT01","USUBJID":"01-716-1151","SUBJID":"1151","SITEID":"716","SITEGR1":"900","COUNTRY":"USA","ARM":"Xanomeline Low Dose","ARMCD":"Xan_Lo","ACTARM":"Xanomeline Low Dose","ACTARMCD":"Xan_Lo","TRT01P":"Xanomeline Low Dose","TRT01PN":null,"TRT01A":"Xanomeline Low Dose","TRT01AN":null,"TRTP":"Xanomeline Low Dose","TRTSDT":"2013-02-01","TRTEDT":"2013-05-11","TRTDURD":100,"AGE":83,"AGEU":"YEARS","AGEGR1":">80","AGEGR1N":3,"SEX":"F","RACE":"WHITE","ETHNIC":"NOT HISPANIC OR LATINO","WEIGHTBL":45.81,"HEIGHTBL":152.4,"BMIBL":19.7,"RANDFL":"Y","ITTFL":"Y","SAFFL":"Y","EFFFL":"N","COMPLFL":"N","EOSSTT":"DISCONTINUED","DCSREAS":"ADVERSE EVENT","EOSDT":"2013-06-07","DTHFL":null,"DTHDT":null,"DTHDY":null,"DTHCAUS":null},{"STUDYID":"CDISCPILOT01","USUBJID":"01-716-1157","SUBJID":"1157","SITEID":"716","SITEGR1":"900","COUNTRY":"USA","ARM":"Xanomeline Low Dose","ARMCD":"Xan_Lo","ACTARM":"Xanomeline Low Dose","ACTARMCD":"Xan_Lo","TRT01P":"Xanomeline Low Dose","TRT01PN":null,"TRT01A":"Xanomeline Low Dose","TRT01AN":null,"TRTP":"Xanomeline Low Dose","TRTSDT":"2013-10-02","TRTEDT":"2014-04-04","TRTDURD":185,"AGE":85,"AGEU":"YEARS","AGEGR1":">80","AGEGR1N":3,"SEX":"M","RACE":"WHITE","ETHNIC":"NOT HISPANIC OR LATINO","WEIGHTBL":59.42,"HEIGHTBL":160.02,"BMIBL":23.2,"RANDFL":"Y","ITTFL":"Y","SAFFL":"Y","EFFFL":"N","COMPLFL":"Y","EOSSTT":"COMPLETED","DCSREAS":"COMPLETED","EOSDT":"2014-04-05","DTHFL":null,"DTHDT":null,"DTHDY":null,"DTHCAUS":null},{"STUDYID":"CDISCPILOT01","USUBJID":"01-716-1160","SUBJID":"1160","SITEID":"716","SITEGR1":"900","COUNTRY":"USA","ARM":"Placebo","ARMCD":"Pbo","ACTARM":"Placebo","ACTARMCD":"Pbo","TRT01P":"Placebo","TRT01PN":null,"TRT01A":"Placebo","TRT01AN":null,"TRTP":"Placebo","TRTSDT":"2013-04-05","TRTEDT":"2013-10-11","TRTDURD":190,"AGE":83,"AGEU":"YEARS","AGEGR1":">80","AGEGR1N":3,"SEX":"F","RACE":"WHITE","ETHNIC":"NOT HISPANIC OR LATINO","WEIGHTBL":59.88,"HEIGHTBL":157.48,"BMIBL":24.1,"RANDFL":"Y","ITTFL":"Y","SAFFL":"Y","EFFFL":"N","COMPLFL":"Y","EOSSTT":"COMPLETED","DCSREAS":"COMPLETED","EOSDT":"2013-10-11","DTHFL":null,"DTHDT":null,"DTHDY":null,"DTHCAUS":null},{"STUDYID":"CDISCPILOT01","USUBJID":"01-716-1167","SUBJID":"1167","SITEID":"716","SITEGR1":"900","COUNTRY":"USA","ARM":"Xanomeline Low Dose","ARMCD":"Xan_Lo","ACTARM":"Xanomeline Low Dose","ACTARMCD":"Xan_Lo","TRT01P":"Xanomeline Low Dose","TRT01PN":null,"TRT01A":"Xanomeline Low Dose","TRT01AN":null,"TRTP":"Xanomeline Low Dose","TRTSDT":"2012-10-08","TRTEDT":"2013-04-12","TRTDURD":187,"AGE":68,"AGEU":"YEARS","AGEGR1":"65-80","AGEGR1N":2,"SEX":"M","RACE":"WHITE","ETHNIC":"NOT HISPANIC OR LATINO","WEIGHTBL":62.6,"HEIGHTBL":158.75,"BMIBL":24.8,"RANDFL":"Y","ITTFL":"Y","SAFFL":"Y","EFFFL":"N","COMPLFL":"Y","EOSSTT":"COMPLETED","DCSREAS":"COMPLETED","EOSDT":"2013-04-13","DTHFL":null,"DTHDT":null,"DTHDY":null,"DTHCAUS":null},{"STUDYID":"CDISCPILOT01","USUBJID":"01-716-1177","SUBJID":"1177","SITEID":"716","SITEGR1":"900","COUNTRY":"USA","ARM":"Placebo","ARMCD":"Pbo","ACTARM":"Placebo","ACTARMCD":"Pbo","TRT01P":"Placebo","TRT01PN":null,"TRT01A":"Placebo","TRT01AN":null,"TRTP":"Placebo","TRTSDT":"2014-09-02","TRTEDT":"2015-03-05","TRTDURD":185,"AGE":72,"AGEU":"YEARS","AGEGR1":"65-80","AGEGR1N":2,"SEX":"M","RACE":"WHITE","ETHNIC":"NOT HISPANIC OR LATINO","WEIGHTBL":86.18,"HEIGHTBL":177.8,"BMIBL":27.3,"RANDFL":"Y","ITTFL":"Y","SAFFL":"Y","EFFFL":"N","COMPLFL":"Y","EOSSTT":"COMPLETED","DCSREAS":"COMPLETED","EOSDT":"2015-03-05","DTHFL":null,"DTHDT":null,"DTHDY":null,"DTHCAUS":null},{"STUDYID":"CDISCPILOT01","USUBJID":"01-716-1189","SUBJID":"1189","SITEID":"716","SITEGR1":"900","COUNTRY":"USA","ARM":"Xanomeline High Dose","ARMCD":"Xan_Hi","ACTARM":"Xanomeline High Dose","ACTARMCD":"Xan_Hi","TRT01P":"Xanomeline High Dose","TRT01PN":null,"TRT01A":"Xanomeline High Dose","TRT01AN":null,"TRTP":"Xanomeline High Dose","TRTSDT":"2012-10-09","TRTEDT":"2013-02-27","TRTDURD":142,"AGE":81,"AGEU":"YEARS","AGEGR1":">80","AGEGR1N":3,"SEX":"M","RACE":"WHITE","ETHNIC":"NOT HISPANIC OR LATINO","WEIGHTBL":73.48,"HEIGHTBL":163.83,"BMIBL":27.4,"RANDFL":"Y","ITTFL":"Y","SAFFL":"Y","EFFFL":"N","COMPLFL":"N","EOSSTT":"DISCONTINUED","DCSREAS":"ADVERSE EVENT","EOSDT":"2013-03-03","DTHFL":null,"DTHDT":null,"DTHDY":null,"DTHCAUS":null},{"STUDYID":"CDISCPILOT01","USUBJID":"01-716-1229","SUBJID":"1229","SITEID":"716","SITEGR1":"900","COUNTRY":"USA","ARM":"Xanomeline High Dose","ARMCD":"Xan_Hi","ACTARM":"Xanomeline High Dose","ACTARMCD":"Xan_Hi","TRT01P":"Xanomeline High Dose","TRT01PN":null,"TRT01A":"Xanomeline High Dose","TRT01AN":null,"TRTP":"Xanomeline High Dose","TRTSDT":"2013-02-20","TRTEDT":"2013-03-31","TRTDURD":40,"AGE":73,"AGEU":"YEARS","AGEGR1":"65-80","AGEGR1N":2,"SEX":"F","RACE":"WHITE","ETHNIC":"NOT HISPANIC OR LATINO","WEIGHTBL":63.96,"HEIGHTBL":161.29,"BMIBL":24.6,"RANDFL":"Y","ITTFL":"Y","SAFFL":"Y","EFFFL":"N","COMPLFL":"N","EOSSTT":"DISCONTINUED","DCSREAS":"ADVERSE EVENT","EOSDT":"2013-04-02","DTHFL":null,"DTHDT":null,"DTHDY":null,"DTHCAUS":null},{"STUDYID":"CDISCPILOT01","USUBJID":"01-716-1244","SUBJID":"1244","SITEID":"716","SITEGR1":"900","COUNTRY":"USA","ARM":"Screen Failure","ARMCD":"Scrnfail","ACTARM":"Screen Failure","ACTARMCD":"Scrnfail","TRT01P":"Screen Failure","TRT01PN":null,"TRT01A":"Screen Failure","TRT01AN":null,"TRTP":"Screen Failure","TRTSDT":null,"TRTEDT":null,"TRTDURD":null,"AGE":72,"AGEU":"YEARS","AGEGR1":"65-80","AGEGR1N":2,"SEX":"F","RACE":"WHITE","ETHNIC":"NOT HISPANIC OR LATINO","WEIGHTBL":null,"HEIGHTBL":null,"BMIBL":null,"RANDFL":"Y","ITTFL":"Y","SAFFL":"N","EFFFL":"N","COMPLFL":"N","EOSSTT":"DISCONTINUED","DCSREAS":"SCREEN FAILURE","EOSDT":"2013-08-15","DTHFL":null,"DTHDT":null,"DTHDY":null,"DTHCAUS":null},{"STUDYID":"CDISCPILOT01","USUBJID":"01-716-1298","SUBJID":"1298","SITEID":"716","SITEGR1":"900","COUNTRY":"USA","ARM":"Xanomeline Low Dose","ARMCD":"Xan_Lo","ACTARM":"Xanomeline Low Dose","ACTARMCD":"Xan_Lo","TRT01P":"Xanomeline Low Dose","TRT01PN":null,"TRT01A":"Xanomeline Low Dose","TRT01AN":null,"TRTP":"Xanomeline Low Dose","TRTSDT":"2013-04-08","TRTEDT":"2013-06-28","TRTDURD":82,"AGE":76,"AGEU":"YEARS","AGEGR1":"65-80","AGEGR1N":2,"SEX":"F","RACE":"WHITE","ETHNIC":"NOT HISPANIC OR LATINO","WEIGHTBL":71.67,"HEIGHTBL":156.21,"BMIBL":29.4,"RANDFL":"Y","ITTFL":"Y","SAFFL":"Y","EFFFL":"N","COMPLFL":"N","EOSSTT":"DISCONTINUED","DCSREAS":"ADVERSE EVENT","EOSDT":"2013-07-06","DTHFL":null,"DTHDT":null,"DTHDY":null,"DTHCAUS":null},{"STUDYID":"CDISCPILOT01","USUBJID":"01-716-1305","SUBJID":"1305","SITEID":"716","SITEGR1":"900","COUNTRY":"USA","ARM":"Screen Failure","ARMCD":"Scrnfail","ACTARM":"Screen Failure","ACTARMCD":"Scrnfail","TRT01P":"Screen Failure","TRT01PN":null,"TRT01A":"Screen Failure","TRT01AN":null,"TRTP":"Screen Failure","TRTSDT":null,"TRTEDT":null,"TRTDURD":null,"AGE":73,"AGEU":"YEARS","AGEGR1":"65-80","AGEGR1N":2,"SEX":"F","RACE":"WHITE","ETHNIC":"NOT HISPANIC OR LATINO","WEIGHTBL":null,"HEIGHTBL":null,"BMIBL":null,"RANDFL":"Y","ITTFL":"Y","SAFFL":"N","EFFFL":"N","COMPLFL":"N","EOSSTT":"DISCONTINUED","DCSREAS":"SCREEN FAILURE","EOSDT":"2013-08-06","DTHFL":null,"DTHDT":null,"DTHDY":null,"DTHCAUS":null},{"STUDYID":"CDISCPILOT01","USUBJID":"01-716-1308","SUBJID":"1308","SITEID":"716","SITEGR1":"900","COUNTRY":"USA","ARM":"Placebo","ARMCD":"Pbo","ACTARM":"Placebo","ACTARMCD":"Pbo","TRT01P":"Placebo","TRT01PN":null,"TRT01A":"Placebo","TRT01AN":null,"TRTP":"Placebo","TRTSDT":"2013-08-28","TRTEDT":"2013-10-07","TRTDURD":41,"AGE":76,"AGEU":"YEARS","AGEGR1":"65-80","AGEGR1N":2,"SEX":"F","RACE":"WHITE","ETHNIC":"NOT HISPANIC OR LATINO","WEIGHTBL":58.51,"HEIGHTBL":157.48,"BMIBL":23.6,"RANDFL":"Y","ITTFL":"Y","SAFFL":"Y","EFFFL":"N","COMPLFL":"N","EOSSTT":"DISCONTINUED","DCSREAS":"WITHDRAWAL BY SUBJECT","EOSDT":"2013-10-07","DTHFL":null,"DTHDT":null,"DTHDY":null,"DTHCAUS":null},{"STUDYID":"CDISCPILOT01","USUBJID":"01-716-1311","SUBJID":"1311","SITEID":"716","SITEGR1":"900","COUNTRY":"USA","ARM":"Xanomeline Low Dose","ARMCD":"Xan_Lo","ACTARM":"Xanomeline Low Dose","ACTARMCD":"Xan_Lo","TRT01P":"Xanomeline Low Dose","TRT01PN":null,"TRT01A":"Xanomeline Low Dose","TRT01AN":null,"TRTP":"Xanomeline Low Dose","TRTSDT":"2014-05-14","TRTEDT":"2014-09-21","TRTDURD":131,"AGE":78,"AGEU":"YEARS","AGEGR1":"65-80","AGEGR1N":2,"SEX":"M","RACE":"WHITE","ETHNIC":"NOT HISPANIC OR LATINO","WEIGHTBL":80.74,"HEIGHTBL":172.72,"BMIBL":27.1,"RANDFL":"Y","ITTFL":"Y","SAFFL":"Y","EFFFL":"N","COMPLFL":"N","EOSSTT":"DISCONTINUED","DCSREAS":"WITHDRAWAL BY SUBJECT","EOSDT":"2014-09-30","DTHFL":null,"DTHDT":null,"DTHDY":null,"DTHCAUS":null},{"STUDYID":"CDISCPILOT01","USUBJID":"01-716-1331","SUBJID":"1331","SITEID":"716","SITEGR1":"900","COUNTRY":"USA","ARM":"Screen Failure","ARMCD":"Scrnfail","ACTARM":"Screen Failure","ACTARMCD":"Scrnfail","TRT01P":"Screen Failure","TRT01PN":null,"TRT01A":"Screen Failure","TRT01AN":null,"TRTP":"Screen Failure","TRTSDT":null,"TRTEDT":null,"TRTDURD":null,"AGE":59,"AGEU":"YEARS","AGEGR1":"<65","AGEGR1N":1,"SEX":"F","RACE":"WHITE","ETHNIC":"NOT HISPANIC OR LATINO","WEIGHTBL":null,"HEIGHTBL":null,"BMIBL":null,"RANDFL":"Y","ITTFL":"Y","SAFFL":"N","EFFFL":"N","COMPLFL":"N","EOSSTT":"DISCONTINUED","DCSREAS":"SCREEN FAILURE","EOSDT":"2013-11-25","DTHFL":null,"DTHDT":null,"DTHDY":null,"DTHCAUS":null},{"STUDYID":"CDISCPILOT01","USUBJID":"01-716-1364","SUBJID":"1364","SITEID":"716","SITEGR