[{"STUDYID":"CDISCPILOT01","USUBJID":"01-701-1015","PARAMCD":"DIABPSU","PARAM":"Diastolic Blood Pressure, Supine","ATPT":"SUPINE","AVAL":64,"AVALU":"mmHg","SRCVISIT":"SCREENING 1","ADT":"2013-12-26","DY":-7,"ADY":-7,"AVISIT":"Baseline","AVISITN":0,"ATARGDY":1,"BASE":56,"ABLFL":null,"CHG":null,"PCHG":null,"ANL01FL":null,"DTYPE":null,"ANL02FL":null,"TRTP":"Placebo","TRT01P":"Placebo","TRT01PN":null,"TRT01A":"Placebo","SITEGR1":900,"SITEID":701,"TRTSDT":"2014-01-02","TRTEDT":"2014-07-02","ITTFL":"Y","SAFFL":"Y","EFFFL":"N","COMPLFL":"Y"},{"STUDYID":"CDISCPILOT01","USUBJID":"01-701-1015","PARAMCD":"DIABPST","PARAM":"Diastolic Blood Pressure, Standing","ATPT":"STANDING","AVAL":83,"AVALU":"mmHg","SRCVISIT":"SCREENING 1","ADT":"2013-12-26","DY":-7,"ADY":-7,"AVISIT":"Baseline","AVISITN":0,"ATARGDY":1,"BASE":51,"ABLFL":null,"CHG":null,"PCHG":null,"ANL01FL":null,"DTYPE":null,"ANL02FL":null,"TRTP":"Placebo","TRT01P":"Placebo","TRT01PN":null,"TRT01A":"Placebo","SITEGR1":900,"SITEID":701,"TRTSDT":"2014-01-02","TRTEDT":"2014-07-02","ITTFL":"Y","SAFFL":"Y","EFFFL":"N","COMPLFL":"Y"},{"STUDYID":"CDISCPILOT01","USUBJID":"01-701-1015","PARAMCD":"DIABPST","PARAM":"Diastolic Blood Pressure, Standing","ATPT":"STANDING","AVAL":57,"AVALU":"mmHg","SRCVISIT":"SCREENING 1","ADT":"2013-12-26","DY":-7,"ADY":-7,"AVISIT":"Baseline","AVISITN":0,"ATARGDY":1,"BASE":51,"ABLFL":null,"CHG":null,"PCHG":null,"ANL01FL":null,"DTYPE":null,"ANL02FL":null,"TRTP":"Placebo","TRT01P":"Placebo","TRT01PN":null,"TRT01A":"Placebo","SITEGR1":900,"SITEID":701,"TRTSDT":"2014-01-02","TRTEDT":"2014-07-02","ITTFL":"Y","SAFFL":"Y","EFFFL":"N","COMPLFL":"Y"},{"STUDYID":"CDISCPILOT01","USUBJID":"01-701-1015","PARAMCD":"DIABPSU","PARAM":"Diastolic Blood Pressure, Supine","ATPT":"SUPINE","AVAL":68,"AVALU":"mmHg","SRCVISIT":"SCREENING 2","ADT":"2013-12-31","DY":-2,"ADY":-2,"AVISIT":"Baseline","AVISITN":0,"ATARGDY":1,"BASE":56,"ABLFL":null,"CHG":null,"PCHG":null,"ANL01FL":null,"DTYPE":null,"ANL02FL":null,"TRTP":"Placebo","TRT01P":"Placebo","TRT01PN":null,"TRT01A":"Placebo","SITEGR1":900,"SITEID":701,"TRTSDT":"2014-01-02","TRTEDT":"2014-07-02","ITTFL":"Y","SAFFL":"Y","EFFFL":"N","COMPLFL":"Y"},{"STUDYID":"CDISCPILOT01","USUBJID":"01-701-1015","PARAMCD":"DIABPST","PARAM":"Diastolic Blood Pressure, Standing","ATPT":"STANDING","AVAL":59,"AVALU":"mmHg","SRCVISIT":"SCREENING 2","ADT":"2013-12-31","DY":-2,"ADY":-2,"AVISIT":"Baseline","AVISITN":0,"ATARGDY":1,"BASE":51,"ABLFL":null,"CHG":null,"PCHG":null,"ANL01FL":null,"DTYPE":null,"ANL02FL":null,"TRTP":"Placebo","TRT01P":"Placebo","TRT01PN":null,"TRT01A":"Placebo","SITEGR1":900,"SITEID":701,"TRTSDT":"2014-01-02","TRTEDT":"2014-07-02","ITTFL":"Y","SAFFL":"Y","EFFFL":"N","COMPLFL":"Y"},{"STUDYID":"CDISCPILOT01","USUBJID":"01-701-1015","PARAMCD":"DIABPST","PARAM":"Diastolic Blood Pressure, Standing","ATPT":"STANDING","AVAL":71,"AVALU":"mmHg","SRCVISIT":"SCREENING 2","ADT":"2013-12-31","DY":-2,"ADY":-2,"AVISIT":"Baseline","AVISITN":0,"ATARGDY":1,"BASE":51,"ABLFL":null,"CHG":null,"PCHG":null,"ANL01FL":null,"DTYPE":null,"ANL02FL":null,"TRTP":"Placebo","TRT01P":"Placebo","TRT01PN":null,"TRT01A":"Placebo","SITEGR1":900,"SITEID":701,"TRTSDT":"2014-01-02","TRTEDT":"2014-07-02","ITTFL":"Y","SAFFL":"Y","EFFFL":"N","COMPLFL":"Y"},{"STUDYID":"CDISCPILOT01","USUBJID":"01-701-1015","PARAMCD":"DIABPSU","PARAM":"Diastolic Blood Pressure, Supine","ATPT":"SUPINE","AVAL":56,"AVALU":"mmHg","SRCVISIT":"BASELINE","ADT":"2014-01-02","DY":1,"ADY":1,"AVISIT":"Baseline","AVISITN":0,"ATARGDY":1,"BASE":56,"ABLFL":"Y","CHG":null,"PCHG":null,"ANL01FL":"Y","DTYPE":null,"ANL02FL":"Y","TRTP":"Placebo","TRT01P":"Placebo","TRT01PN":null,"TRT01A":"Placebo","SITEGR1":900,"SITEID":701,"TRTSDT":"2014-01-02","TRTEDT":"2014-07-02","ITTFL":"Y","SAFFL":"Y","EFFFL":"N","COMPLFL":"Y"},{"STUDYID":"CDISCPILOT01","USUBJID":"01-701-1015","PARAMCD":"DIABPST","PARAM":"Diastolic Blood Pressure, Standing","ATPT":"STANDING","AVAL":51,"AVALU":"mmHg","SRCVISIT":"BASELINE","ADT":"2014-01-02","DY":1,"ADY":1,"AVISIT":"Baseline","AVISITN":0,"ATARGDY":1,"BASE":51,"ABLFL":"Y","CHG":null,"PCHG":null,"ANL01FL":"Y","DTYPE":null,"ANL02FL":"Y","TRTP":"Placebo","TRT01P":"Placebo","TRT01PN":null,"TRT01A":"Placebo","SITEGR1":900,"SITEID":701,"TRTSDT":"2014-01-02","TRTEDT":"2014-07-02","ITTFL":"Y","SAFFL":"Y","EFFFL":"N","COMPLFL":"Y"},{"STUDYID":"CDISCPILOT01","USUBJID":"01-701-1015","PARAMCD":"DIABPST","PARAM":"Diastolic Blood Pressure, Standing","ATPT":"STANDING","AVAL":61,"AVALU":"mmHg","SRCVISIT":"BASELINE","ADT":"2014-01-02","DY":1,"ADY":1,"AVISIT":"Baseline","AVISITN":0,"ATARGDY":1,"BASE":51,"ABLFL":"Y","CHG":null,"PCHG":null,"ANL01FL":null,"DTYPE":null,"ANL02FL":null,"TRTP":"Placebo","TRT01P":"Placebo","TRT01PN":null,"TRT01A":"Placebo","SITEGR1":900,"SITEID":701,"TRTSDT":"2014-01-02","TRTEDT":"2014-07-02","ITTFL":"Y","SAFFL":"Y","EFFFL":"N","COMPLFL":"Y"},{"STUDYID":"CDISCPILOT01","USUBJID":"01-701-1015","PARAMCD":"DIABPSU","PARAM":"Diastolic Blood Pressure, Supine","ATPT":"SUPINE","AVAL":67,"AVALU":"mmHg","SRCVISIT":"AMBUL ECG PLACEMENT","ADT":"2014-01-14","DY":13,"ADY":13,"AVISIT":"Week 2","AVISITN":2,"ATARGDY":15,"BASE":56,"ABLFL":null,"CHG":11,"PCHG":19.6429,"ANL01FL":null,"DTYPE":null,"ANL02FL":null,"TRTP":"Placebo","TRT01P":"Placebo","TRT01PN":null,"TRT01A":"Placebo","SITEGR1":900,"SITEID":701,"TRTSDT":"2014-01-02","TRTEDT":"2014-07-02","ITTFL":"Y","SAFFL":"Y","EFFFL":"N","COMPLFL":"Y"},{"STUDYID":"CDISCPILOT01","USUBJID":"01-701-1015","PARAMCD":"DIABPST","PARAM":"Diastolic Blood Pressure, Standing","ATPT":"STANDING","AVAL":61,"AVALU":"mmHg","SRCVISIT":"AMBUL ECG PLACEMENT","ADT":"2014-01-14","DY":13,"ADY":13,"AVISIT":"Week 2","AVISITN":2,"ATARGDY":15,"BASE":51,"ABLFL":null,"CHG":10,"PCHG":19.6078,"ANL01FL":null,"DTYPE":null,"ANL02FL":null,"TRTP":"Placebo","TRT01P":"Placebo","TRT01PN":null,"TRT01A":"Placebo","SITEGR1":900,"SITEID":701,"TRTSDT":"2014-01-02","TRTEDT":"2014-07-02","ITTFL":"Y","SAFFL":"Y","EFFFL":"N","COMPLFL":"Y"},{"STUDYID":"CDISCPILOT01","USUBJID":"01-701-1015","PARAMCD":"DIABPST","PARAM":"Diastolic Blood Pressure, Standing","ATPT":"STANDING","AVAL":65,"AVALU":"mmHg","SRCVISIT":"AMBUL ECG PLACEMENT","ADT":"2014-01-14","DY":13,"ADY":13,"AVISIT":"Week 2","AVISITN":2,"ATARGDY":15,"BASE":51,"ABLFL":null,"CHG":14,"PCHG":27.451,"ANL01FL":null,"DTYPE":null,"ANL02FL":null,"TRTP":"Placebo","TRT01P":"Placebo","TRT01PN":null,"TRT01A":"Placebo","SITEGR1":900,"SITEID":701,"TRTSDT":"2014-01-02","TRTEDT":"2014-07-02","ITTFL":"Y","SAFFL":"Y","EFFFL":"N","COMPLFL":"Y"},{"STUDYID":"CDISCPILOT01","USUBJID":"01-701-1015","PARAMCD":"DIABPSU","PARAM":"Diastolic Blood Pressure, Supine","ATPT":"SUPINE","AVAL":56,"AVALU":"mmHg","SRCVISIT":"WEEK 2","ADT":"2014-01-16","DY":15,"ADY":15,"AVISIT":"Week 2","AVISITN":2,"ATARGDY":15,"BASE":56,"ABLFL":null,"CHG":0,"PCHG":0,"ANL01FL":"Y","DTYPE":null,"ANL02FL":"Y","TRTP":"Placebo","TRT01P":"Placebo","TRT01PN":null,"TRT01A":"Placebo","SITEGR1":900,"SITEID":701,"TRTSDT":"2014-01-02","TRTEDT":"2014-07-02","ITTFL":"Y","SAFFL":"Y","EFFFL":"N","COMPLFL":"Y"},{"STUDYID":"CDISCPILOT01","USUBJID":"01-701-1015","PARAMCD":"DIABPST","PARAM":"Diastolic Blood Pressure, Standing","ATPT":"STANDING","AVAL":50,"AVALU":"mmHg","SRCVISIT":"WEEK 2","ADT":"2014-01-16","DY":15,"ADY":15,"AVISIT":"Week 2","AVISITN":2,"ATARGDY":15,"BASE":51,"ABLFL":null,"CHG":-1,"PCHG":-1.9608,"ANL01FL":"Y","DTYPE":null,"ANL02FL":"Y","TRTP":"Placebo","TRT01P":"Placebo","TRT01PN":null,"TRT01A":"Placebo","SITEGR1":900,"SITEID":701,"TRTSDT":"2014-01-02","TRTEDT":"2014-07-02","ITTFL":"Y","SAFFL":"Y","EFFFL":"N","COMPLFL":"Y"},{"STUDYID":"CDISCPILOT01","USUBJID":"01-701-1015","PARAMCD":"DIABPST","PARAM":"Diastolic Blood Pressure, Standing","ATPT":"STANDING","AVAL":54,"AVALU":"mmHg","SRCVISIT":"WEEK 2","ADT":"2014-01-16","DY":15,"ADY":15,"AVISIT":"Week 2","AVISITN":2,"ATARGDY":15,"BASE":51,"ABLFL":null,"CHG":3,"PCHG":5.8824,"ANL01FL":null,"DTYPE":null,"ANL02FL":null,"TRTP":"Placebo","TRT01P":"Placebo","TRT01PN":null,"TRT01A":"Placebo","SITEGR1":900,"SITEID":701,"TRTSDT":"2014-01-02","TRTEDT":"2014-07-02","ITTFL":"Y","SAFFL":"Y","EFFFL":"N","COMPLFL":"Y"},{"STUDYID":"CDISCPILOT01","USUBJID":"01-701-1015","PARAMCD":"DIABPSU","PARAM":"Diastolic Blood Pressure, Supine","ATPT":"SUPINE","AVAL":64,"AVALU":"mmHg","SRCVISIT":"WEEK 4","ADT":"2014-01-30","DY":29,"ADY":29,"AVISIT":"Week 4","AVISITN":4,"ATARGDY":29,"BASE":56,"ABLFL":null,"CHG":8,"PCHG":14.2857,"ANL01FL":"Y","DTYPE":null,"ANL02FL":"Y","TRTP":"Placebo","TRT01P":"Placebo","TRT01PN":null,"TRT01A":"Placebo","SITEGR1":900,"SITEID":701,"TRTSDT":"2014-01-02","TRTEDT":"2014-07-02","ITTFL":"Y","SAFFL":"Y","EFFFL":"N","COMPLFL":"Y"},{"STUDYID":"CDISCPILOT01","USUBJID":"01-701-1015","PARAMCD":"DIABPST","PARAM":"Diastolic Blood Pressure, Standing","ATPT":"STANDING","AVAL":55,"AVALU":"mmHg","SRCVISIT":"WEEK 4","ADT":"2014-01-30","DY":29,"ADY":29,"AVISIT":"Week 4","AVISITN":4,"ATARGDY":29,"BASE":51,"ABLFL":null,"CHG":4,"PCHG":7.8431,"ANL01FL":"Y","DTYPE":null,"ANL02FL":"Y","TRTP":"Placebo","TRT01P":"Placebo","TRT01PN":null,"TRT01A":"Placebo","SITEGR1":900,"SITEID":701,"TRTSDT":"2014-01-02","TRTEDT":"2014-07-02","ITTFL":"Y","SAFFL":"Y","EFFFL":"N","COMPLFL":"Y"},{"STUDYID":"CDISCPILOT01","USUBJID":"01-701-1015","PARAMCD":"DIABPST","PARAM":"Diastolic Blood Pressure, Standing","ATPT":"STANDING","AVAL":53,"AVALU":"mmHg","SRCVISIT":"WEEK 4","ADT":"2014-01-30","DY":29,"ADY":29,"AVISIT":"Week 4","AVISITN":4,"ATARGDY":29,"BASE":51,"ABLFL":null,"CHG":2,"PCHG":3.9216,"ANL01FL":null,"DTYPE":null,"ANL02FL":null,"TRTP":"Placebo","TRT01P":"Placebo","TRT01PN":null,"TRT01A":"Placebo","SITEGR1":900,"SITEID":701,"TRTSDT":"2014-01-02","TRTEDT":"2014-07-02","ITTFL":"Y","SAFFL":"Y","EFFFL":"N","COMPLFL":"Y"},{"STUDYID":"CDISCPILOT01","USUBJID":"01-701-1015","PARAMCD":"DIABPSU","PARAM":"Diastolic Blood Pressure, Supine","ATPT":"SUPINE","AVAL":72,"AVALU":"mmHg","SRCVISIT":"AMBUL ECG REMOVAL","ADT":"2014-02-01","DY":31,"ADY":31,"AVISIT":"Week 4","AVISITN":4,"ATARGDY":29,"BASE":56,"ABLFL":null,"CHG":16,"PCHG":28.5714,"ANL01FL":null,"DTYPE":null,"ANL02FL":null,"TRTP":"Placebo","TRT01P":"Placebo","TRT01PN":null,"TRT01A":"Placebo","SITEGR1":900,"SITEID":701,"TRTSDT":"2014-01-02","TRTEDT":"2014-07-02","ITTFL":"Y","SAFFL":"Y","EFFFL":"N","COMPLFL":"Y"},{"STUDYID":"CDISCPILOT01","USUBJID":"01-701-1015","PARAMCD":"DIABPST","PARAM":"Diastolic Blood Pressure, Standing","ATPT":"STANDING","AVAL":61,"AVALU":"mmHg","SRCVISIT":"AMBUL ECG REMOVAL","ADT":"2014-02-01","DY":31,"ADY":31,"AVISIT":"Week 4","AVISITN":4,"ATARGDY":29,"BASE":51,"ABLFL":null,"CHG":10,"PCHG":19.6078,"ANL01FL":null,"DTYPE":null,"ANL02FL":null,"TRTP":"Placebo","TRT01P":"Placebo","TRT01PN":null,"TRT01A":"Placebo","SITEGR1":900,"SITEID":701,"TRTSDT":"2014-01-02","TRTEDT":"2014-07-02","ITTFL":"Y","SAFFL":"Y","EFFFL":"N","COMPLFL":"Y"},{"STUDYID":"CDISCPILOT01","USUBJID":"01-701-1015","PARAMCD":"DIABPST","PARAM":"Diastolic Blood Pressure, Standing","ATPT":"STANDING","AVAL":53,"AVALU":"mmHg","SRCVISIT":"AMBUL ECG REMOVAL","ADT":"2014-02-01","DY":31,"ADY":31,"AVISIT":"Week 4","AVISITN":4,"ATARGDY":29,"BASE":51,"ABLFL":null,"CHG":2,"PCHG":3.9216,"ANL01FL":null,"DTYPE":null,"ANL02FL":null,"TRTP":"Placebo","TRT01P":"Placebo","TRT01PN":null,"TRT01A":"Placebo","SITEGR1":900,"SITEID":701,"TRTSDT":"2014-01-02","TRTEDT":"2014-07-02","ITTFL":"Y","SAFFL":"Y","EFFFL":"N","COMPLFL":"Y"},{"STUDYID":"CDISCPILOT01","USUBJID":"01-701-1015","PARAMCD":"DIABPSU","PARAM":"Diastolic Blood Pressure, Supine","ATPT":"SUPINE","AVAL":55,"AVALU":"mmHg","SRCVISIT":"WEEK 6","ADT":"2014-02-12","DY":42,"ADY":42,"AVISIT":"Week 6","AVISITN":6,"ATARGDY":43,"BASE":56,"ABLFL":null,"CHG":-1,"PCHG":-1.7857,"ANL01FL":"Y","DTYPE":null,"ANL02FL":"Y","TRTP":"Placebo","TRT01P":"Placebo","TRT01PN":null,"TRT01A":"Placebo","SITEGR1":900,"SITEID":701,"TRTSDT":"2014-01-02","TRTEDT":"2014-07-02","ITTFL":"Y","SAFFL":"Y","EFFFL":"N","COMPLFL":"Y"},{"STUDYID":"CDISCPILOT01","USUBJID":"01-701-1015","PARAMCD":"DIABPST","PARAM":"Diastolic Blood Pressure, Standing","ATPT":"STANDING","AVAL":63,"AVALU":"mmHg","SRCVISIT":"WEEK 6","ADT":"2014-02-12","DY":42,"ADY":42,"AVISIT":"Week 6","AVISITN":6,"ATARGDY":43,"BASE":51,"ABLFL":null,"CHG":12,"PCHG":23.5294,"ANL01FL":"Y","DTYPE":null,"ANL02FL":"Y","TRTP":"Placebo","TRT01P":"Placebo","TRT01PN":null,"TRT01A":"Placebo","SITEGR1":900,"SITEID":701,"TRTSDT":"2014-01-02","TRTEDT":"2014-07-02","ITTFL":"Y","SAFFL":"Y","EFFFL":"N","COMPLFL":"Y"},{"STUDYID":"CDISCPILOT01","USUBJID":"01-701-1015","PARAMCD":"DIABPST","PARAM":"Diastolic Blood Pressure, Standing","ATPT":"STANDING","AVAL":60,"AVALU":"mmHg","SRCVISIT":"WEEK 6","ADT":"2014-02-12","DY":42,"ADY":42,"AVISIT":"Week 6","AVISITN":6,"ATARGDY":43,"BASE":51,"ABLFL":null,"CHG":9,"PCHG":17.6471,"ANL01FL":null,"DTYPE":null,"ANL02FL":null,"TRTP":"Placebo","TRT01P":"Placebo","TRT01PN":null,"TRT01A":"Placebo","SITEGR1":900,"SITEID":701,"TRTSDT":"2014-01-02","TRTEDT":"2014-07-02","ITTFL":"Y","SAFFL":"Y","EFFFL":"N","COMPLFL":"Y"},{"STUDYID":"CDISCPILOT01","USUBJID":"01-701-1015","PARAMCD":"DIABPSU","PARAM":"Diastolic Blood Pressure, Supine","ATPT":"SUPINE","AVAL":67,"AVALU":"mmHg","SRCVISIT":"WEEK 8","ADT":"2014-03-05","DY":63,"ADY":63,"AVISIT":"Week 8","AVISITN":8,"ATARGDY":57,"BASE":56,"ABLFL":null,"CHG":11,"PCHG":19.6429,"ANL01FL":"Y","DTYPE":null,"ANL02FL":"Y","TRTP":"Placebo","TRT01P":"Placebo","TRT01PN":null,"TRT01A":"Placebo","SITEGR1":900,"SITEID":701,"TRTSDT":"2014-01-02","TRTEDT":"2014-07-02","ITTFL":"Y","SAFFL":"Y","EFFFL":"N","COMPLFL":"Y"},{"STUDYID":"CDISCPILOT01","USUBJID":"01-701-1015","PARAMCD":"DIABPST","PARAM":"Diastolic Blood Pressure, Standing","ATPT":"STANDING","AVAL":62,"AVALU":"mmHg","SRCVISIT":"WEEK 8","ADT":"2014-03-05","DY":63,"ADY":63,"AVISIT":"Week 8","AVISITN":8,"ATARGDY":57,"BASE":51,"ABLFL":null,"CHG":11,"PCHG":21.5686,"ANL01FL":"Y","DTYPE":null,"ANL02FL":"Y","TRTP":"Placebo","TRT01P":"Placebo","TRT01PN":null,"TRT01A":"Placebo","SITEGR1":900,"SITEID":701,"TRTSDT":"2014-01-02","TRTEDT":"2014-07-02","ITTFL":"Y","SAFFL":"Y","EFFFL":"N","COMPLFL":"Y"},{"STUDYID":"CDISCPILOT01","USUBJID":"01-701-1015","PARAMCD":"DIABPST","PARAM":"Diastolic Blood Pressure, Standing","ATPT":"STANDING","AVAL":71,"AVALU":"mmHg","SRCVISIT":"WEEK 8","ADT":"2014-03-05","DY":63,"ADY":63,"AVISIT":"Week 8","AVISITN":8,"ATARGDY":57,"BASE":51,"ABLFL":null,"CHG":20,"PCHG":39.2157,"ANL01FL":null,"DTYPE":null,"ANL02FL":null,"TRTP":"Placebo","TRT01P":"Placebo","TRT01PN":null,"TRT01A":"Placebo","SITEGR1":900,"SITEID":701,"TRTSDT":"2014-01-02","TRTEDT":"2014-07-02","ITTFL":"Y","SAFFL":"Y","EFFFL":"N","COMPLFL":"Y"},{"STUDYID":"CDISCPILOT01","USUBJID":"01-701-1015","PARAMCD":"DIABPSU","PARAM":"Diastolic Blood Pressure, Supine","ATPT":"SUPINE","AVAL":68,"AVALU":"mmHg","SRCVISIT":"WEEK 12","ADT":"2014-03-26","DY":84,"ADY":84,"AVISIT":"Week 12","AVISITN":12,"ATARGDY":85,"BASE":56,"ABLFL":null,"CHG":12,"PCHG":21.4286,"ANL01FL":"Y","DTYPE":null,"ANL02FL":"Y","TRTP":"Placebo","TRT01P":"Placebo","TRT01PN":null,"TRT01A":"Placebo","SITEGR1":900,"SITEID":701,"TRTSDT":"2014-01-02","TRTEDT":"2014-07-02","ITTFL":"Y","SAFFL":"Y","EFFFL":"N","COMPLFL":"Y"},{"STUDYID":"CDISCPILOT01","USUBJID":"01-701-1015","PARAMCD":"DIABPST","PARAM":"Diastolic Blood Pressure, Standing","ATPT":"STANDING","AVAL":60,"AVALU":"mmHg","SRCVISIT":"WEEK 12","ADT":"2014-03-26","DY":84,"ADY":84,"AVISIT":"Week 12","AVISITN":12,"ATARGDY":85,"BASE":51,"ABLFL":null,"CHG":9,"PCHG":17.6471,"ANL01FL":"Y","DTYPE":null,"ANL02FL":"Y","TRTP":"Placebo","TRT01P":"Placebo","TRT01PN":null,"TRT01A":"Placebo","SITEGR1":900,"SITEID":701,"TRTSDT":"2014-01-02","TRTEDT":"2014-07-02","ITTFL":"Y","SAFFL":"Y","EFFFL":"N","COMPLFL":"Y"},{"STUDYID":"CDISCPILOT01","USUBJID":"01-701-1015","PARAMCD":"DIABPST","PARAM":"Diastolic Blood Pressure, Standing","ATPT":"STANDING","AVAL":64,"AVALU":"mmHg","SRCVISIT":"WEEK 12","ADT":"2014-03-26","DY":84,"ADY":84,"AVISIT":"Week 12","AVISITN":12,"ATARGDY":85,"BASE":51,"ABLFL":null,"CHG":13,"PCHG":25.4902,"ANL01FL":null,"DTYPE":null,"ANL02FL":null,"TRTP":"Placebo","TRT01P":"Placebo","TRT01PN":null,"TRT01A":"Placebo","SITEGR1":900,"SITEID":701,"TRTSDT":"2014-01-02","TRTEDT":"2014-07-02","ITTFL":"Y","SAFFL":"Y","EFFFL":"N","COMPLFL":"Y"},{"STUDYID":"CDISCPILOT01","USUBJID":"01-701-1015","PARAMCD":"DIABPSU","PARAM":"Diastolic Blood Pressure, Supine","ATPT":"SUPINE","AVAL":66,"AVALU":"mmHg","SRCVISIT":"WEEK 16","ADT":"2014-05-07","DY":126,"ADY":126,"AVISIT":"Week 16","AVISITN":16,"ATARGDY":113,"BASE":56,"ABLFL":null,"CHG":10,"PCHG":17.8571,"ANL01FL":"Y","DTYPE":null,"ANL02FL":"Y","TRTP":"Placebo","TRT01P":"Placebo","TRT01PN":null,"TRT01A":"Placebo","SITEGR1":900,"SITEID":701,"TRTSDT":"2014-01-02","TRTEDT":"2014-07-02","ITTFL":"Y","SAFFL":"Y","EFFFL":"N","COMPLFL":"Y"},{"STUDYID":"CDISCPILOT01","USUBJID":"01-701-1015","PARAMCD":"DIABPST","PARAM":"Diastolic Blood Pressure, Standing","ATPT":"STANDING","AVAL":68,"AVALU":"mmHg","SRCVISIT":"WEEK 16","ADT":"2014-05-07","DY":126,"ADY":126,"AVISIT":"Week 16","AVISITN":16,"ATARGDY":113,"BASE":51,"ABLFL":null,"CHG":17,"PCHG":33.3333,"ANL01FL":"Y","DTYPE":null,"ANL02FL":"Y","TRTP":"Placebo","TRT01P":"Placebo","TRT01PN":null,"TRT01A":"Placebo","SITEGR1":900,"SITEID":701,"TRTSDT":"2014-01-02","TRTEDT":"2014-07-02","ITTFL":"Y","SAFFL":"Y","EFFFL":"N","COMPLFL":"Y"},{"STUDYID":"CDISCPILOT01","USUBJID":"01-701-1015","PARAMCD":"DIABPST","PARAM":"Diastolic Blood Pressure, Standing","ATPT":"STANDING","AVAL":66,"AVALU":"mmHg","SRCVISIT":"WEEK 16","ADT":"2014-05-07","DY":126,"ADY":126,"AVISIT":"Week 16","AVISITN":16,"ATARGDY":113,"BASE":51,"ABLFL":null,"CHG":15,"PCHG":29.4118,"ANL01FL":null,"DTYPE":null,"ANL02FL":null,"TRTP":"Placebo","TRT01P":"Placebo","TRT01PN":null,"TRT01A":"Placebo","SITEGR1":900,"SITEID":701,"TRTSDT":"2014-01-02","TRTEDT":"2014-07-02","ITTFL":"Y","SAFFL":"Y","EFFFL":"N","COMPLFL":"Y"},{"STUDYID":"CDISCPILOT01","USUBJID":"01-701-1015","PARAMCD":"DIABPSU","PARAM":"Diastolic Blood Pressure, Supine","ATPT":"SUPINE","AVAL":67,"AVALU":"mmHg","SRCVISIT":"WEEK 20","ADT":"2014-05-21","DY":140,"ADY":140,"AVISIT":"Week 20","AVISITN":20,"ATARGDY":141,"BASE":56,"ABLFL":null,"CHG":11,"PCHG":19.6429,"ANL01FL":"Y","DTYPE":null,"ANL02FL":"Y","TRTP":"Placebo","TRT01P":"Placebo","TRT01PN":null,"TRT01A":"Placebo","SITEGR1":900,"SITEID":701,"TRTSDT":"2014-01-02","TRTEDT":"2014-07-02","ITTFL":"Y","SAFFL":"Y","EFFFL":"N","COMPLFL":"Y"},{"STUDYID":"CDISCPILOT01","USUBJID":"01-701-1015","PARAMCD":"DIABPST","PARAM":"Diastolic Blood Pressure, Standing","ATPT":"STANDING","AVAL":65,"AVALU":"mmHg","SRCVISIT":"WEEK 20","ADT":"2014-05-21","DY":140,"ADY":140,"AVISIT":"Week 20","AVISITN":20,"ATARGDY":141,"BASE":51,"ABLFL":null,"CHG":14,"PCHG":27.451,"ANL01FL":"Y","DTYPE":null,"ANL02FL":"Y","TRTP":"Placebo","TRT01P":"Placebo","TRT01PN":null,"TRT01A":"Placebo","SITEGR1":900,"SITEID":701,"TRTSDT":"2014-01-02","TRTEDT":"2014-07-02","ITTFL":"Y","SAFFL":"Y","EFFFL":"N","COMPLFL":"Y"},{"STUDYID":"CDISCPILOT01","USUBJID":"01-701-1015","PARAMCD":"DIABPST","PARAM":"Diastolic Blood Pressure, Standing","ATPT":"STANDING","AVAL":63,"AVALU":"mmHg","SRCVISIT":"WEEK 20","ADT":"2014-05-21","DY":140,"ADY":140,"AVISIT":"Week 20","AVISITN":20,"ATARGDY":141,"BASE":51,"ABLFL":null,"CHG":12,"PCHG":23.5294,"ANL01FL":null,"DTYPE":null,"ANL02FL":null,"TRTP":"Placebo","TRT01P":"Placebo","TRT01PN":null,"TRT01A":"Placebo","SITEGR1":900,"SITEID":701,"TRTSDT":"2014-01-02","TRTEDT":"2014-07-02","ITTFL":"Y","SAFFL":"Y","EFFFL":"N","COMPLFL":"Y"},{"STUDYID":"CDISCPILOT01","USUBJID":"01-701-1015","PARAMCD":"DIABPSU","PARAM":"Diastolic Blood Pressure, Supine","ATPT":"SUPINE","AVAL":63,"AVALU":"mmHg","SRCVISIT":"WEEK 24","ADT":"2014-06-18","DY":168,"ADY":168,"AVISIT":"Week 24","AVISITN":24,"ATARGDY":169,"BASE":56,"ABLFL":null,"CHG":7,"PCHG":12.5,"ANL01FL":"Y","DTYPE":null,"ANL02FL":"Y","TRTP":"Placebo","TRT01P":"Placebo","TRT01PN":null,"TRT01A":"Placebo","SITEGR1":900,"SITEID":701,"TRTSDT":"2014-01-02","TRTEDT":"2014-07-02","ITTFL":"Y","SAFFL":"Y","EFFFL":"N","COMPLFL":"Y"},{"STUDYID":"CDISCPILOT01","USUBJID":"01-701-1015","PARAMCD":"DIABPST","PARAM":"Diastolic Blood Pressure, Standing","ATPT":"STANDING","AVAL":57,"AVALU":"mmHg","SRCVISIT":"WEEK 24","ADT":"2014-06-18","DY":168,"ADY":168,"AVISIT":"Week 24","AVISITN":24,"ATARGDY":169,"BASE":51,"ABLFL":null,"CHG":6,"PCHG":11.7647,"ANL01FL":"Y","DTYPE":null,"ANL02FL":"Y","TRTP":"Placebo","TRT01P":"Placebo","TRT01PN":null,"TRT01A":"Placebo","SITEGR1":900,"SITEID":701,"TRTSDT":"2014-01-02","TRTEDT":"2014-07-02","ITTFL":"Y","SAFFL":"Y","EFFFL":"N","COMPLFL":"Y"},{"STUDYID":"CDISCPILOT01","USUBJID":"01-701-1015","PARAMCD":"DIABPST","PARAM":"Diastolic Blood Pressure, Standing","ATPT":"STANDING","AVAL":71,"AVALU":"mmHg","SRCVISIT":"WEEK 24","ADT":"2014-06-18","DY":168,"ADY":168,"AVISIT":"Week 24","AVISITN":24,"ATARGDY":169,"BASE":51,"ABLFL":null,"CHG":20,"PCHG":39.2157,"ANL01FL":null,"DTYPE":null,"ANL02FL":null,"TRTP":"Placebo","TRT01P":"Placebo","TRT01PN":null,"TRT01A":"Placebo","SITEGR1":900,"SITEID":701,"TRTSDT":"2014-01-02","TRTEDT":"2014-07-02","ITTFL":"Y","SAFFL":"Y","EFFFL":"N","COMPLFL":"Y"},{"STUDYID":"CDISCPILOT01","USUBJID":"01-701-1015","PARAMCD":"DIABPSU","PARAM":"Diastolic Blood Pressure, Supine","ATPT":"SUPINE","AVAL":61,"AVALU":"mmHg","SRCVISIT":"WEEK 26","ADT":"2014-07-02","DY":182,"ADY":182,"AVISIT":"Week 26","AVISITN":26,"ATARGDY":183,"BASE":56,"ABLFL":null,"CHG":5,"PCHG":8.9286,"ANL01FL":"Y","DTYPE":null,"ANL02FL":"Y","TRTP":"Placebo","TRT01P":"Placebo","TRT01PN":null,"TRT01A":"Placebo","SITEGR1":900,"SITEID":701,"TRTSDT":"2014-01-02","TRTEDT":"2014-07-02","ITTFL":"Y","SAFFL":"Y","EFFFL":"N","COMPLFL":"Y"},{"STUDYID":"CDISCPILOT01","USUBJID":"01-701-1015","PARAMCD":"DIABPST","PARAM":"Diastolic Blood Pressure, Standing","ATPT":"STANDING","AVAL":59,"AVALU":"mmHg","SRCVISIT":"WEEK 26","ADT":"2014-07-02","DY":182,"ADY":182,"AVISIT":"Week 26","AVISITN":26,"ATARGDY":183,"BASE":51,"ABLFL":null,"CHG":8,"PCHG":15.6863,"ANL01FL":"Y","DTYPE":null,"ANL02FL":"Y","TRTP":"Placebo","TRT01P":"Placebo","TRT01PN":null,"TRT01A":"Placebo","SITEGR1":900,"SITEID":701,"TRTSDT":"2014-01-02","TRTEDT":"2014-07-02","ITTFL":"Y","SAFFL":"Y","EFFFL":"N","COMPLFL":"Y"},{"STUDYID":"CDISCPILOT01","USUBJID":"01-701-1015","PARAMCD":"DIABPST","PARAM":"Diastolic Blood Pressure, Standing","ATPT":"STANDING","AVAL":55,"AVALU":"mmHg","SRCVISIT":"WEEK 26","ADT":"2014-07-02","DY":182,"ADY":182,"AVISIT":"Week 26","AVISITN":26,"ATARGDY":183,"BASE":51,"ABLFL":null,"CHG":4,"PCHG":7.8431,"ANL01FL":null,"DTYPE":null,"ANL02FL":null,"TRTP":"Placebo","TRT01P":"Placebo","TRT01PN":null,"TRT01A":"Placebo","SITEGR1":900,"SITEID":701,"TRTSDT":"2014-01-02","TRTEDT":"2014-07-02","ITTFL":"Y","SAFFL":"Y","EFFFL":"N","COMPLFL":"Y"},{"STUDYID":"CDISCPILOT01","USUBJID":"01-701-1015","PARAMCD":"HEIGHT","PARAM":"Height","ATPT":null,"AVAL":147.32,"AVALU":"cm","SRCVISIT":"SCREENING 1","ADT":"2013-12-26","DY":-7,"ADY":-7,"AVISIT":"Baseline","AVISITN":0,"ATARGDY":1,"BASE":147.32,"ABLFL":"Y","CHG":null,"PCHG":null,"ANL01FL":"Y","DTYPE":null,"ANL02FL":"Y","TRTP":"Placebo","TRT01P":"Placebo","TRT01PN":null,"TRT01A":"Placebo","SITEGR1":900,"SITEID":701,"TRTSDT":"2014-01-02","TRTEDT":"2014-07-02","ITTFL":"Y","SAFFL":"Y","EFFFL":"N","COMPLFL":"Y"},{"STUDYID":"CDISCPILOT01","USUBJID":"01-701-1015","PARAMCD":"PULSESU","PARAM":"Pulse Rate, Supine","ATPT":"SUPINE","AVAL":57,"AVALU":"BEATS/MIN","SRCVISIT":"SCREENING 1","ADT":"2013-12-26","DY":-7,"ADY":-7,"AVISIT":"Baseline","AVISITN":0,"ATARGDY":1,"BASE":56,"ABLFL":null,"CHG":null,"PCHG":null,"ANL01FL":null,"DTYPE":null,"ANL02FL":null,"TRTP":"Placebo","TRT01P":"Placebo","TRT01PN":null,"TRT01A":"Placebo","SITEGR1":900,"SITEID":701,"TRTSDT":"2014-01-02","TRTEDT":"2014-07-02","ITTFL":"Y","SAFFL":"Y","EFFFL":"N","COMPLFL":"Y"},{"STUDYID":"CDISCPILOT01","USUBJID":"01-701-1015","PARAMCD":"PULSEST","PARAM":"Pulse Rate, Standing","ATPT":"STANDING","AVAL":62,"AVALU":"BEATS/MIN","SRCVISIT":"SCREENING 1","ADT":"2013-12-26","DY":-7,"ADY":-7,"AVISIT":"Baseline","AVISITN":0,"ATARGDY":1,"BASE":59,"ABLFL":null,"CHG":null,"PCHG":null,"ANL01FL":null,"DTYPE":null,"ANL02FL":null,"TRTP":"Placebo","TRT01P":"Placebo","TRT01PN":null,"TRT01A":"Placebo","SITEGR1":900,"SITEID":701,"TRTSDT":"2014-01-02","TRTEDT":"2014-07-02","ITTFL":"Y","SAFFL":"Y","EFFFL":"N","COMPLFL":"Y"},{"STUDYID":"CDISCPILOT01","USUBJID":"01-701-1015","PARAMCD":"PULSEST","PARAM":"Pulse Rate, Standing","ATPT":"STANDING","AVAL":65,"AVALU":"BEATS/MIN","SRCVISIT":"SCREENING 1","ADT":"2013-12-26","DY":-7,"ADY":-7,"AVISIT":"Baseline","AVISITN":0,"ATARGDY":1,"BASE":59,"ABLFL":null,"CHG":null,"PCHG":null,"ANL01FL":null,"DTYPE":null,"ANL02FL":null,"TRTP":"Placebo","TRT01P":"Placebo","TRT01PN":null,"TRT01A":"Placebo","SITEGR1":900,"SITEID":701,"TRTSDT":"2014-01-02","TRTEDT":"2014-07-02","ITTFL":"Y","SAFFL":"Y","EFFFL":"N","COMPLFL":"Y"},{"STUDYID":"CDISCPILOT01","USUBJID":"01-701-1015","PARAMCD":"PULSESU","PARAM":"Pulse Rate, Supine","ATPT":"SUPINE","AVAL":56,"AVALU":"BEATS/MIN","SRCVISIT":"SCREENING 2","ADT":"2013-12-31","DY":-2,"ADY":-2,"AVISIT":"Baseline","AVISITN":0,"ATARGDY":1,"BASE":56,"ABLFL":null,"CHG":null,"PCHG":null,"ANL01FL":null,"DTYPE":null,"ANL02FL":null,"TRTP":"Placebo","TRT01P":"Placebo","TRT01PN":null,"TRT01A":"Placebo","SITEGR1":900,"SITEID":701,"TRTSDT":"2014-01-02","TRTEDT":"2014-07-02","ITTFL":"Y","SAFFL":"Y","EFFFL":"N","COMPLFL":"Y"},{"STUDYID":"CDISCPILOT01","USUBJID":"01-701-1015","PARAMCD":"PULSEST","PARAM":"Pulse Rate, Standing","ATPT":"STANDING","AVAL":60,"AVALU":"BEATS/MIN","SRCVISIT":"SCREENING 2","ADT":"2013-12-31","DY":-2,"ADY":-2,"AVISIT":"Baseline","AVISITN":0,"ATARGDY":1,"BASE":59,"ABLFL":null,"CHG":null,"PCHG":null,"ANL01FL":null,"DTYPE":null,"ANL02FL":null,"TRTP":"Placebo","TRT01P":"Placebo","TRT01PN":null,"TRT01A":"Placebo","SITEGR1":900,"SITEID":701,"TRTSDT":"2014-01-02","TRTEDT":"2014-07-02","ITTFL":"Y","SAFFL":"Y","EFFFL":"N","COMPLFL":"Y"},{"STUDYID":"CDISCPILOT01","USUBJID":"01-701-1015","PARAMCD":"PULSEST","PARAM":"Pulse Rate, Standing","ATPT":"STANDING","AVAL":57,"AVALU":"BEATS/MIN","SRCVISIT":"SCREENING 2","ADT":"2013-12-31","DY":-2,"ADY":-2,"AVISIT":"Baseline","AVISITN":0,"ATARGDY":1,"BASE":59,"ABLFL":null,"CHG":null,"PCHG":null,"ANL01FL":null,"DTYPE":null,"ANL02FL":null,"TRTP":"Placebo","TRT01P":"Placebo","TRT01PN":null,"TRT01A":"Placebo","SITEGR1":900,"SITEID":701,"TRTSDT":"2014-01-02","TRTEDT":"2014-07-02","ITTFL":"Y","SAFFL":"Y","EFFFL":"N","COMPLFL":"Y"},{"STUDYID":"CDISCPILOT01","USUBJID":"01-701-1015","PARAMCD":"PULSESU","PARAM":"Pulse Rate, Supine","ATPT":"SUPINE","AVAL":56,"AVALU":"BEATS/MIN","SRCVISIT":"BASELINE","ADT":"2014-01-02","DY":1,"ADY":1,"AVISIT":"Baseline","AVISITN":0,"ATARGDY":1,"BASE":56,"ABLFL":"Y","CHG":null,"PCHG":null,"ANL01FL":"Y","DTYPE":null,"ANL02FL":"Y","TRTP":"Placebo","TRT01P":"Placebo","TRT01PN":null,"TRT01A":"Placebo","SITEGR1":900,"SITEID":701,"TRTSDT":"2014-01-02","TRTEDT":"2014-07-02","ITTFL":"Y","SAFFL":"Y","EFFFL":"N","COMPLFL":"Y"},{"STUDYID":"CDISCPILOT01","USUBJID":"01-701-1015","PARAMCD":"PULSEST","PARAM":"Pulse Rate, Standing","ATPT":"STANDING","AVAL":59,"AVALU":"BEATS/MIN","SRCVISIT":"BASELINE","ADT":"2014-01-02","DY":1,"ADY":1,"AVISIT":"Baseline","AVISITN":0,"ATARGDY":1,"BASE":59,"ABLFL":"Y","CHG":null,"PCHG":null,"ANL01FL":"Y","DTYPE":null,"ANL02FL":"Y","TRTP":"Placebo","TRT01P":"Placebo","TRT01PN":null,"TRT01A":"Placebo","SITEGR1":900,"SITEID":701,"TRTSDT":"2014-01-02","TRTEDT":"2014-07-02","ITTFL":"Y","SAFFL":"Y","EFFFL":"N","COMPLFL":"Y"},{"STUDYID":"CDISCPILOT01","USUBJID":"01-701-1015","PARAMCD":"PULSEST","PARAM":"Pulse Rate, Standing","ATPT":"STANDING","AVAL":59,"AVALU":"BEATS/MIN","SRCVISIT":"BASELINE","ADT":"2014-01-02","DY":1,"ADY":1,"AVISIT":"Baseline","AVISITN":0,"ATARGDY":1,"BASE":59,"ABLFL":"Y","CHG":null,"PCHG":null,"ANL01FL":null,"DTYPE":null,"ANL02FL":null,"TRTP":"Placebo","TRT01P":"Placebo","TRT01PN":null,"TRT01A":"Placebo","SITEGR1":900,"SITEID":701,"TRTSDT":"2014-01-02","TRTEDT":"2014-07-02","ITTFL":"Y","SAFFL":"Y","EFFFL":"N","COMPLFL":"Y"},{"STUDYID":"CDISCPILOT01","USUBJID":"01-701-1015","PARAMCD":"PULSESU","PARAM":"Pulse Rate, Supine","ATPT":"SUPINE","AVAL":61,"AVALU":"BEATS/MIN","SRCVISIT":"AMBUL ECG PLACEMENT","ADT":"2014-01-14","DY":13,"ADY":13,"AVISIT":"Week 2","AVISITN":2,"ATARGDY":15,"BASE":56,"ABLFL":null,"CHG":5,"PCHG":8.9286,"ANL01FL":null,"DTYPE":null,"ANL02FL":null,"TRTP":"Placebo","TRT01P":"Placebo","TRT01PN":null,"TRT01A":"Placebo","SITEGR1":900,"SITEID":701,"TRTSDT":"2014-01-02","TRTEDT":"2014-07-02","ITTFL":"Y","SAFFL":"Y","EFFFL":"N","COMPLFL":"Y"},{"STUDYID":"CDISCPILOT01","USUBJID":"01-701-1015","PARAMCD":"PULSEST","PARAM":"Pulse Rate, Standing","ATPT":"STANDING","AVAL":65,"AVALU":"BEATS/MIN","SRCVISIT":"AMBUL ECG PLACEMENT","ADT":"2014-01-14","DY":13,"ADY":13,"AVISIT":"Week 2","AVISITN":2,"ATARGDY":15,"BASE":59,"ABLFL":null,"CHG":6,"PCHG":10.1695,"ANL01FL":null,"DTYPE":null,"ANL02FL":null,"TRTP":"Placebo","TRT01P":"Placebo","TRT01PN":null,"TRT01A":"Placebo","SITEGR1":900,"SITEID":701,"TRTSDT":"2014-01-02","TRTEDT":"2014-07-02","ITTFL":"Y","SAFFL":"Y","EFFFL":"N","COMPLFL":"Y"},{"STUDYID":"CDISCPILOT01","USUBJID":"01-701-1015","PARAMCD":"PULSEST","PARAM":"Pulse Rate, Standing","ATPT":"STANDING","AVAL":61,"AVALU":"BEATS/MIN","SRCVISIT":"AMBUL ECG PLACEMENT","ADT":"2014-01-14","DY":13,"ADY":13,"AVISIT":"Week 2","AVISITN":2,"ATARGDY":15,"BASE":59,"ABLFL":null,"CHG":2,"PCHG":3.3898,"ANL01FL":null,"DTYPE":null,"ANL02FL":null,"TRTP":"Placebo","TRT01P":"Placebo","TRT01PN":null,"TRT01A":"Placebo","SITEGR1":900,"SITEID":701,"TRTSDT":"2014-01-02","TRTEDT":"2014-07-02","ITTFL":"Y","SAFFL":"Y","EFFFL":"N","COMPLFL":"Y"},{"STUDYID":"CDISCPILOT01","USUBJID":"01-701-1015","PARAMCD":"PULSESU","PARAM":"Pulse Rate, Supine","ATPT":"SUPINE","AVAL":58,"AVALU":"BEATS/MIN","SRCVISIT":"WEEK 2","ADT":"2014-01-16","DY":15,"ADY":15,"AVISIT":"Week 2","AVISITN":2,"ATARGDY":15,"BASE":56,"ABLFL":null,"CHG":2,"PCHG":3.5714,"ANL01FL":"Y","DTYPE":null,"ANL02FL":"Y","TRTP":"Placebo","TRT01P":"Placebo","TRT01PN":null,"TRT01A":"Placebo","SITEGR1":900,"SITEID":701,"TRTSDT":"2014-01-02","TRTEDT":"2014-07-02","ITTFL":"Y","SAFFL":"Y","EFFFL":"N","COMPLFL":"Y"},{"STUDYID":"CDISCPILOT01","USUBJID":"01-701-1015","PARAMCD":"PULSEST","PARAM":"Pulse Rate, Standing","ATPT":"STANDING","AVAL":61,"AVALU":"BEATS/MIN","SRCVISIT":"WEEK 2","ADT":"2014-01-16","DY":15,"ADY":15,"AVISIT":"Week 2","AVISITN":2,"ATARGDY":15,"BASE":59,"ABLFL":null,"CHG":2,"PCHG":3.3898,"ANL01FL":"Y","DTYPE":null,"ANL02FL":"Y","TRTP":"Placebo","TRT01P":"Placebo","TRT01PN":null,"TRT01A":"Placebo","SITEGR1":900,"SITEID":701,"TRTSDT":"2014-01-02","TRTEDT":"2014-07-02","ITTFL":"Y","SAFFL":"Y","EFFFL":"N","COMPLFL":"Y"},{"STUDYID":"CDISCPILOT01","USUBJID":"01-701-1015","PARAMCD":"PULSEST","PARAM":"Pulse Rate, Standing","ATPT":"STANDING","AVAL":62,"AVALU":"BEATS/MIN","SRCVISIT":"WEEK 2","ADT":"2014-01-16","DY":15,"ADY":15,"AVISIT":"Week 2","AVISITN":2,"ATARGDY":15,"BASE":59,"ABLFL":null,"CHG":3,"PCHG":5.0847,"ANL01FL":null,"DTYPE":null,"ANL02FL":null,"TRTP":"Placebo","TRT01P":"Placebo","TRT01PN":null,"TRT01A":"Placebo","SITEGR1":900,"SITEID":701,"TRTSDT":"2014-01-02","TRTEDT":"2014-07-02","ITTFL":"Y","SAFFL":"Y","EFFFL":"N","COMPLFL":"Y"},{"STUDYID":"CDISCPILOT01","USUBJID":"01-701-1015","PARAMCD":"PULSESU","PARAM":"Pulse Rate, Supine","ATPT":"SUPINE","AVAL":59,"AVALU":"BEATS/MIN","SRCVISIT":"WEEK 4","ADT":"2014-01-30","DY":29,"ADY":29,"AVISIT":"Week 4","AVISITN":4,"ATARGDY":29,"BASE":56,"ABLFL":null,"CHG":3,"PCHG":5.3571,"ANL01FL":"Y","DTYPE":null,"ANL02FL":"Y","TRTP":"Placebo","TRT01P":"Placebo","TRT01PN":null,"TRT01A":"Placebo","SITEGR1":900,"SITEID":701,"TRTSDT":"2014-01-02","TRTEDT":"2014-07-02","ITTFL":"Y","SAFFL":"Y","EFFFL":"N","COMPLFL":"Y"},{"STUDYID":"CDISCPILOT01","USUBJID":"01-701-1015","PARAMCD":"PULSEST","PARAM":"Pulse Rate, Standing","ATPT":"STANDING","AVAL":62,"AVALU":"BEATS/MIN","SRCVISIT":"WEEK 4","ADT":"2014-01-30","DY":29,"ADY":29,"AVISIT":"Week 4","AVISITN":4,"ATARGDY":29,"BASE":59,"ABLFL":null,"CHG":3,"PCHG":5.0847,"ANL01FL":"Y","DTYPE":null,"ANL02FL":"Y","TRTP":"Placebo","TRT01P":"Placebo","TRT01PN":null,"TRT01A":"Placebo","SITEGR1":900,"SITEID":701,"TRTSDT":"2014-01-02","TRTEDT":"2014-07-02","ITTFL":"Y","SAFFL":"Y","EFFFL":"N","COMPLFL":"Y"},{"STUDYID":"CDISCPILOT01","USUBJID":"01-701-1015","PARAMCD":"PULSEST","PARAM":"Pulse Rate, Standing","ATPT":"STANDING","AVAL":59,"AVALU":"BEATS/MIN","SRCVISIT":"WEEK 4","ADT":"2014-01-30","DY":29,"ADY":29,"AVISIT":"Week 4","AVISITN":4,"ATARGDY":29,"BASE":59,"ABLFL":null,"CHG":0,"PCHG":0,"ANL01FL":null,"DTYPE":null,"ANL02FL":null,"TRTP":"Placebo","TRT01P":"Placebo","TRT01PN":null,"TRT01A":"Placebo","SITEGR1":900,"SITEID":701,"TRTSDT":"2014-01-02","TRTEDT":"2014-07-02","ITTFL":"Y","SAFFL":"Y","EFFFL":"N","COMPLFL":"Y"},{"STUDYID":"CDISCPILOT01","USUBJID":"01-701-1015","PARAMCD":"PULSESU","PARAM":"Pulse Rate, Supine","ATPT":"SUPINE","AVAL":67,"AVALU":"BEATS/MIN","SRCVISIT":"AMBUL ECG REMOVAL","ADT":"2014-02-01","DY":31,"ADY":31,"AVISIT":"Week 4","AVISITN":4,"ATARGDY":29,"BASE":56,"ABLFL":null,"CHG":11,"PCHG":19.6429,"ANL01FL":null,"DTYPE":null,"ANL02FL":null,"TRTP":"Placebo","TRT01P":"Placebo","TRT01PN":null,"TRT01A":"Placebo","SITEGR1":900,"SITEID":701,"TRTSDT":"2014-01-02","TRTEDT":"2014-07-02","ITTFL":"Y","SAFFL":"Y","EFFFL":"N","COMPLFL":"Y"},{"STUDYID":"CDISCPILOT01","USUBJID":"01-701-1015","PARAMCD":"PULSEST","PARAM":"Pulse Rate, Standing","ATPT":"STANDING","AVAL":69,"AVALU":"BEATS/MIN","SRCVISIT":"AMBUL ECG REMOVAL","ADT":"2014-02-01","DY":31,"ADY":31,"AVISIT":"Week 4","AVISITN":4,"ATARGDY":29,"BASE":59,"ABLFL":null,"CHG":10,"PCHG":16.9492,"ANL01FL":null,"DTYPE":null,"ANL02FL":null,"TRTP":"Placebo","TRT01P":"Placebo","TRT01PN":null,"TRT01A":"Placebo","SITEGR1":900,"SITEID":701,"TRTSDT":"2014-01-02","TRTEDT":"2014-07-02","ITTFL":"Y","SAFFL":"Y","EFFFL":"N","COMPLFL":"Y"},{"STUDYID":"CDISCPILOT01","USUBJID":"01-701-1015","PARAMCD":"PULSEST","PARAM":"Pulse Rate, Standing","ATPT":"STANDING","AVAL":65,"AVALU":"BEATS/MIN","SRCVISIT":"AMBUL ECG REMOVAL","ADT":"2014-02-01","DY":31,"ADY":31,"AVISIT":"Week 4","AVISITN":4,"ATARGDY":29,"BASE":59,"ABLFL":null,"CHG":6,"PCHG":10.1695,"ANL01FL":null,"DTYPE":null,"ANL02FL":null,"TRTP":"Placebo","TRT01P":"Placebo","TRT01PN":null,"TRT01A":"Placebo","SITEGR1":900,"SITEID":701,"TRTSDT":"2014-01-02","TRTEDT":"2014-07-02","ITTFL":"Y","SAFFL":"Y","EFFFL":"N","COMPLFL":"Y"},{"STUDYID":"CDISCPILOT01","USUBJID":"01-701-1015","PARAMCD":"PULSESU","PARAM":"Pulse Rate, Supine","ATPT":"SUPINE","AVAL":55,"AVALU":"BEATS/MIN","SRCVISIT":"WEEK 6","ADT":"2014-02-12","DY":42,"ADY":42,"AVISIT":"Week 6","AVISITN":6,"ATARGDY":43,"BASE":56,"ABLFL":null,"CHG":-1,"PCHG":-1.7857,"ANL01FL":"Y","DTYPE":null,"ANL02FL":"Y","TRTP":"Placebo","TRT01P":"Placebo","TRT01PN":null,"TRT01A":"Placebo","SITEGR1":900,"SITEID":701,"TRTSDT":"2014-01-02","TRTEDT":"2014-07-02","ITTFL":"Y","SAFFL":"Y","EFFFL":"N","COMPLFL":"Y"},{"STUDYID":"CDISCPILOT01","USUBJID":"01-701-1015","PARAMCD":"PULSEST","PARAM":"Pulse Rate, Standing","ATPT":"STANDING","AVAL":56,"AVALU":"BEATS/MIN","SRCVISIT":"WEEK 6","ADT":"2014-02-12","DY":42,"ADY":42,"AVISIT":"Week 6","AVISITN":6,"ATARGDY":43,"BASE":59,"ABLFL":null,"CHG":-3,"PCHG":-5.0847,"ANL01FL":"Y","DTYPE":null,"ANL02FL":"Y","TRTP":"Placebo","TRT01P":"Placebo","TRT01PN":null,"TRT01A":"Placebo","SITEGR1":900,"SITEID":701,"TRTSDT":"2014-01-02","TRTEDT":"2014-07-02","ITTFL":"Y","SAFFL":"Y","EFFFL":"N","COMPLFL":"Y"},{"STUDYID":"CDISCPILOT01","USUBJID":"01-701-1015","PARAMCD":"PULSEST","PARAM":"Pulse Rate, Standing","ATPT":"STANDING","AVAL":57,"AVALU":"BEATS/MIN","SRCVISIT":"WEEK 6","ADT":"2014-02-12","DY":42,"ADY":42,"AVISIT":"Week 6","AVISITN":6,"ATARGDY":43,"BASE":59,"ABLFL":null,"CHG":-2,"PCHG":-3.3898,"ANL01FL":null,"DTYPE":null,"ANL02FL":null,"TRTP":"Placebo","TRT01P":"Placebo","TRT01PN":null,"TRT01A":"Placebo","SITEGR1":900,"SITEID":701,"TRTSDT":"2014-01-02","TRTEDT":"2014-07-02","ITTFL":"Y","SAFFL":"Y","EFFFL":"N","COMPLFL":"Y"},{"STUDYID":"CDISCPILOT01","USUBJID":"01-701-1015","PARAMCD":"PULSESU","PARAM":"Pulse Rate, Supine","ATPT":"SUPINE","AVAL":57,"AVALU":"BEATS/MIN","SRCVISIT":"WEEK 8","ADT":"2014-03-05","DY":63,"ADY":63,"AVISIT":"Week 8","AVISITN":8,"ATARGDY":57,"BASE":56,"ABLFL":null,"CHG":1,"PCHG":1.7857,"ANL01FL":"Y","DTYPE":null,"ANL02FL":"Y","TRTP":"Placebo","TRT01P":"Placebo","TRT01PN":null,"TRT01A":"Placebo","SITEGR1":900,"SITEID":701,"TRTSDT":"2014-01-02","TRTEDT":"2014-07-02","ITTFL":"Y","SAFFL":"Y","EFFFL":"N","COMPLFL":"Y"},{"STUDYID":"CDISCPILOT01","USUBJID":"01-701-1015","PARAMCD":"PULSEST","PARAM":"Pulse Rate, Standing","ATPT":"STANDING","AVAL":60,"AVALU":"BEATS/MIN","SRCVISIT":"WEEK 8","ADT":"2014-03-05","DY":63,"ADY":63,"AVISIT":"Week 8","AVISITN":8,"ATARGDY":57,"BASE":59,"ABLFL":null,"CHG":1,"PCHG":1.6949,"ANL01FL":"Y","DTYPE":null,"ANL02FL":"Y","TRTP":"Placebo","TRT01P":"Placebo","TRT01PN":null,"TRT01A":"Placebo","SITEGR1":900,"SITEID":701,"TRTSDT":"2014-01-02","TRTEDT":"2014-07-02","ITTFL":"Y","SAFFL":"Y","EFFFL":"N","COMPLFL":"Y"},{"STUDYID":"CDISCPILOT01","USUBJID":"01-701-1015","PARAMCD":"PULSEST","PARAM":"Pulse Rate, Standing","ATPT":"STANDING","AVAL":57,"AVALU":"BEATS/MIN","SRCVISIT":"WEEK 8","ADT":"2014-03-05","DY":63,"ADY":63,"AVISIT":"Week 8","AVISITN":8,"ATARGDY":57,"BASE":59,"ABLFL":null,"CHG":-2,"PCHG":-3.3898,"ANL01FL":null,"DTYPE":null,"ANL02FL":null,"TRTP":"Placebo","TRT01P":"Placebo","TRT01PN":null,"TRT01A":"Placebo","SITEGR1":900,"SITEID":701,"TRTSDT":"2014-01-02","TRTEDT":"2014-07-02","ITTFL":"Y","SAFFL":"Y","EFFFL":"N","COMPLFL":"Y"},{"STUDYID":"CDISCPILOT01","USUBJID":"01-701-1015","PARAMCD":"PULSESU","PARAM":"Pulse Rate, Supine","ATPT":"SUPINE","AVAL":54,"AVALU":"BEATS/MIN","SRCVISIT":"WEEK 12","ADT":"2014-03-26","DY":84,"ADY":84,"AVISIT":"Week 12","AVISITN":12,"ATARGDY":85,"BASE":56,"ABLFL":null,"CHG":-2,"PCHG":-3.5714,"ANL01FL":"Y","DTYPE":null,"ANL02FL":"Y","TRTP":"Placebo","TRT01P":"Placebo","TRT01PN":null,"TRT01A":"Placebo","SITEGR1":900,"SITEID":701,"TRTSDT":"2014-01-02","TRTEDT":"2014-07-02","ITTFL":"Y","SAFFL":"Y","EFFFL":"N","COMPLFL":"Y"},{"STUDYID":"CDISCPILOT01","USUBJID":"01-701-1015","PARAMCD":"PULSEST","PARAM":"Pulse Rate, Standing","ATPT":"STANDING","AVAL":53,"AVALU":"BEATS/MIN","SRCVISIT":"WEEK 12","ADT":"2014-03-26","DY":84,"ADY":84,"AVISIT":"Week 12","AVISITN":12,"ATARGDY":85,"BASE":59,"ABLFL":null,"CHG":-6,"PCHG":-10.1695,"ANL01FL":"Y","DTYPE":null,"ANL02FL":"Y","TRTP":"Placebo","TRT01P":"Placebo","TRT01PN":null,"TRT01A":"Placebo","SITEGR1":900,"SITEID":701,"TRTSDT":"2014-01-02","TRTEDT":"2014-07-02","ITTFL":"Y","SAFFL":"Y","EFFFL":"N","COMPLFL":"Y"},{"STUDYID":"CDISCPILOT01","USUBJID":"01-701-1015","PARAMCD":"PULSEST","PARAM":"Pulse Rate, Standing","ATPT":"STANDING","AVAL":52,"AVALU":"BEATS/MIN","SRCVISIT":"WEEK 12","ADT":"2014-03-26","DY":84,"ADY":84,"AVISIT":"Week 12","AVISITN":12,"ATARGDY":85,"BASE":59,"ABLFL":null,"CHG":-7,"PCHG":-11.8644,"ANL01FL":null,"DTYPE":null,"ANL02FL":null,"TRTP":"Placebo","TRT01P":"Placebo","TRT01PN":null,"TRT01A":"Placebo","SITEGR1":900,"SITEID":701,"TRTSDT":"2014-01-02","TRTEDT":"2014-07-02","ITTFL":"Y","SAFFL":"Y","EFFFL":"N","COMPLFL":"Y"},{"STUDYID":"CDISCPILOT01","USUBJID":"01-701-1015","PARAMCD":"PULSESU","PARAM":"Pulse Rate, Supine","ATPT":"SUPINE","AVAL":60,"AVALU":"BEATS/MIN","SRCVISIT":"WEEK 16","ADT":"2014-05-07","DY":126,"ADY":126,"AVISIT":"Week 16","AVISITN":16,"ATARGDY":113,"BASE":56,"ABLFL":null,"CHG":4,"PCHG":7.1429,"ANL01FL":"Y","DTYPE":null,"ANL02FL":"Y","TRTP":"Placebo","TRT01P":"Placebo","TRT01PN":null,"TRT01A":"Placebo","SITEGR1":900,"SITEID":701,"TRTSDT":"2014-01-02","TRTEDT":"2014-07-02","ITTFL":"Y","SAFFL":"Y","EFFFL":"N","COMPLFL":"Y"},{"STUDYID":"CDISCPILOT01","USUBJID":"01-701-1015","PARAMCD":"PULSEST","PARAM":"Pulse Rate, Standing","ATPT":"STANDING","AVAL":55,"AVALU":"BEATS/MIN","SRCVISIT":"WEEK 16","ADT":"2014-05-07","DY":126,"ADY":126,"AVISIT":"Week 16","AVISITN":16,"ATARGDY":113,"BASE":59,"ABLFL":null,"CHG":-4,"PCHG":-6.7797,"ANL01FL":"Y","DTYPE":null,"ANL02FL":"Y","TRTP":"Placebo","TRT01P":"Placebo","TRT01PN":null,"TRT01A":"Placebo","SITEGR1":900,"SITEID":701,"TRTSDT":"2014-01-02","TRTEDT":"2014-07-02","ITTFL":"Y","SAFFL":"Y","EFFFL":"N","COMPLFL":"Y"},{"STUDYID":"CDISCPILOT01","USUBJID":"01-701-1015","PARAMCD":"PULSEST","PARAM":"Pulse Rate, Standing","ATPT":"STANDING","AVAL":61,"AVALU":"BEATS/MIN","SRCVISIT":"WEEK 16","ADT":"2014-05-07","DY":126,"ADY":126,"AVISIT":"Week 16","AVISITN":16,"ATARGDY":113,"BASE":59,"ABLFL":null,"CHG":2,"PCHG":3.3898,"ANL01FL":null,"DTYPE":null,"ANL02FL":null,"TRTP":"Placebo","TRT01P":"Placebo","TRT01PN":null,"TRT01A":"Placebo","SITEGR1":900,"SITEID":701,"TRTSDT":"2014-01-02","TRTEDT":"2014-07-02","ITTFL":"Y","SAFFL":"Y","EFFFL":"N","COMPLFL":"Y"},{"STUDYID":"CDISCPILOT01","USUBJID":"01-701-1015","PARAMCD":"PULSESU","PARAM":"Pulse Rate, Supine","ATPT":"SUPINE","AVAL":54,"AVALU":"BEATS/MIN","SRCVISIT":"WEEK 20","ADT":"2014-05-21","DY":140,"ADY":140,"AVISIT":"Week 20","AVISITN":20,"ATARGDY":141,"BASE":56,"ABLFL":null,"CHG":-2,"PCHG":-3.5714,"ANL01FL":"Y","DTYPE":null,"ANL02FL":"Y","TRTP":"Placebo","TRT01P":"Placebo","TRT01PN":null,"TRT01A":"Placebo","SITEGR1":900,"SITEID":701,"TRTSDT":"2014-01-02","TRTEDT":"2014-07-02","ITTFL":"Y","SAFFL":"Y","EFFFL":"N","COMPLFL":"Y"},{"STUDYID":"CDISCPILOT01","USUBJID":"01-701-1015","PARAMCD":"PULSEST","PARAM":"Pulse Rate, Standing","ATPT":"STANDING","AVAL":59,"AVALU":"BEATS/MIN","SRCVISIT":"WEEK 20","ADT":"2014-05-21","DY":140,"ADY":140,"AVISIT":"Week 20","AVISITN":20,"ATARGDY":141,"BASE":59,"ABLFL":null,"CHG":0,"PCHG":0,"ANL01FL":"Y","DTYPE":null,"ANL02FL":"Y","TRTP":"Placebo","TRT01P":"Placebo","TRT01PN":null,"TRT01A":"Placebo","SITEGR1":900,"SITEID":701,"TRTSDT":"2014-01-02","TRTEDT":"2014-07-02","ITTFL":"Y","SAFFL":"Y","EFFFL":"N","COMPLFL":"Y"},{"STUDYID":"CDISCPILOT01","USUBJID":"01-701-1015","PARAMCD":"PULSEST","PARAM":"Pulse Rate, Standing","ATPT":"STANDING","AVAL":58,"AVALU":"BEATS/MIN","SRCVISIT":"WEEK 20","ADT":"2014-05-21","DY":140,"ADY":140,"AVISIT":"Week 20","AVISITN":20,"ATARGDY":141,"BASE":59,"ABLFL":null,"CHG":-1,"PCHG":-1.6949,"ANL01FL":null,"DTYPE":null,"ANL02FL":null,"TRTP":"Placebo","TRT01P":"Placebo","TRT01PN":null,"TRT01A":"Placebo","SITEGR1":900,"SITEID":701,"TRTSDT":"2014-01-02","TRTEDT":"2014-07-02","ITTFL":"Y","SAFFL":"Y","EFFFL":"N","COMPLFL":"Y"},{"STUDYID":"CDISCPILOT01","USUBJID":"01-701-1015","PARAMCD":"PULSESU","PARAM":"Pulse Rate, Supine","ATPT":"SUPINE","AVAL":55,"AVALU":"BEATS/MIN","SRCVISIT":"WEEK 24","ADT":"2014-06-18","DY":168,"ADY":168,"AVISIT":"Week 24","AVISITN":24,"ATARGDY":169,"BASE":56,"ABLFL":null,"CHG":-1,"PCHG":-1.7857,"ANL01FL":"Y","DTYPE":null,"ANL02FL":"Y","TRTP":"Placebo","TRT01P":"Placebo","TRT01PN":null,"TRT01A":"Placebo","SITEGR1":900,"SITEID":701,"TRTSDT":"2014-01-02","TRTEDT":"2014-07-02","ITTFL":"Y","SAFFL":"Y","EFFFL":"N","COMPLFL":"Y"},{"STUDYID":"CDISCPILOT01","USUBJID":"01-701-1015","PARAMCD":"PULSEST","PARAM":"Pulse Rate, Standing","ATPT":"STANDING","AVAL":57,"AVALU":"BEATS/MIN","SRCVISIT":"WEEK 24","ADT":"2014-06-18","DY":168,"ADY":168,"AVISIT":"Week 24","AVISITN":24,"ATARGDY":169,"BASE":59,"ABLFL":null,"CHG":-2,"PCHG":-3.3898,"ANL01FL":"Y","DTYPE":null,"ANL02FL":"Y","TRTP":"Placebo","TRT01P":"Placebo","TRT01PN":null,"TRT01A":"Placebo","SITEGR1":900,"SITEID":701,"TRTSDT":"2014-01-02","TRTEDT":"2014-07-02","ITTFL":"Y","SAFFL":"Y","EFFFL":"N","COMPLFL":"Y"},{"STUDYID":"CDISCPILOT01","USUBJID":"01-701-1015","PARAMCD":"PULSEST","PARAM":"Pulse Rate, Standing","ATPT":"STANDING","AVAL":56,"AVALU":"BEATS/MIN","SRCVISIT":"WEEK 24","ADT":"2014-06-18","DY":168,"ADY":168,"AVISIT":"Week 24","AVISITN":24,"ATARGDY":169,"BASE":59,"ABLFL":null,"CHG":-3,"PCHG":-5.0847,"ANL01FL":null,"DTYPE":null,"ANL02FL":null,"TRTP":"Placebo","TRT01P":"Placebo","TRT01PN":null,"TRT01A":"Placebo","SITEGR1":900,"SITEID":701,"TRTSDT":"2014-01-02","TRTEDT":"2014-07-02","ITTFL":"Y","SAFFL":"Y","EFFFL":"N","COMPLFL":"Y"},{"STUDYID":"CDISCPILOT01","USUBJID":"01-701-1015","PARAMCD":"PULSESU","PARAM":"Pulse Rate, Supine","ATPT":"SUPINE","AVAL":60,"AVALU":"BEATS/MIN","SRCVISIT":"WEEK 26","ADT":"2014-07-02","DY":182,"ADY":182,"AVISIT":"Week 26","AVISITN":26,"ATARGDY":183,"BASE":56,"ABLFL":null,"CHG":4,"PCHG":7.1429,"ANL01FL":"Y","DTYPE":null,"ANL02FL":"Y","TRTP":"Placebo","TRT01P":"Placebo","TRT01PN":null,"TRT01A":"Placebo","SITEGR1":900,"SITEID":701,"TRTSDT":"2014-01-02","TRTEDT":"2014-07-02","ITTFL":"Y","SAFFL":"Y","EFFFL":"N","COMPLFL":"Y"},{"STUDYID":"CDISCPILOT01","USUBJID":"01-701-1015","PARAMCD":"PULSEST","PARAM":"Pulse Rate, Standing","ATPT":"STANDING","AVAL":61,"AVALU":"BEATS/MIN","SRCVISIT":"WEEK 26","ADT":"2014-07-02","DY":182,"ADY":182,"AVISIT":"Week 26","AVISITN":26,"ATARGDY":183,"BASE":59,"ABLFL":null,"CHG":2,"PCHG":3.3898,"ANL01FL":"Y","DTYPE":null,"ANL02FL":"Y","TRTP":"Placebo","TRT01P":"Placebo","TRT01PN":null,"TRT01A":"Placebo","SITEGR1":900,"SITEID":701,"TRTSDT":"2014-01-02","TRTEDT":"2014-07-02","ITTFL":"Y","SAFFL":"Y","EFFFL":"N","COMPLFL":"Y"},{"STUDYID":"CDISCPILOT01","USUBJID":"01-701-1015","PARAMCD":"PULSEST","PARAM":"Pulse Rate, Standing","ATPT":"STANDING","AVAL":59,"AVALU":"BEATS/MIN","SRCVISIT":"WEEK 26","ADT":"2014-07-02","DY":182,"ADY":182,"AVISIT":"Week 26","AVISITN":26,"ATARGDY":183,"BASE":59,"ABLFL":null,"CHG":0,"PCHG":0,"ANL01FL":null,"DTYPE":null,"ANL02FL":null,"TRTP":"Placebo","TRT01P":"Placebo","TRT01PN":null,"TRT01A":"Placebo","SITEGR1":900,"SITEID":701,"TRTSDT":"2014-01-02","TRTEDT":"2014-07-02","ITTFL":"Y","SAFFL":"Y","EFFFL":"N","COMPLFL":"Y"},{"STUDYID":"CDISCPILOT01","USUBJID":"01-701-1015","PARAMCD":"SYSBPSU","PARAM":"Systolic Blood Pressure, Supine","ATPT":"SUPINE","AVAL":131,"AVALU":"mmHg","SRCVISIT":"SCREENING 1","ADT":"2013-12-26","DY":-7,"ADY":-7,"AVISIT":"Baseline","AVISITN":0,"ATARGDY":1,"BASE":130,"ABLFL":null,"CHG":null,"PCHG":null,"ANL01FL":null,"DTYPE":null,"ANL02FL":null,"TRTP":"Placebo","TRT01P":"Placebo","TRT01PN":null,"TRT01A":"Placebo","SITEGR1":900,"SITEID":701,"TRTSDT":"2014-01-02","TRTEDT":"2014-07-02","ITTFL":"Y","SAFFL":"Y","EFFFL":"N","COMPLFL":"Y"},{"STUDYID":"CDISCPILOT01","USUBJID":"01-701-1015","PARAMCD":"SYSBPST","PARAM":"Systolic Blood Pressure, Standing","ATPT":"STANDING","AVAL":129,"AVALU":"mmHg","SRCVISIT":"SCREENING 1","ADT":"2013-12-26","DY":-7,"ADY":-7,"AVISIT":"Baseline","AVISITN":0,"ATARGDY":1,"BASE":121,"ABLFL":null,"CHG":null,"PCHG":null,"ANL01FL":null,"DTYPE":null,"ANL02FL":null,"TRTP":"Placebo","TRT01P":"Placebo","TRT01PN":null,"TRT01A":"Placebo","SITEGR1":900,"SITEID":701,"TRTSDT":"2014-01-02","TRTEDT":"2014-07-02","ITTFL":"Y","SAFFL":"Y","EFFFL":"N","COMPLFL":"Y"},{"STUDYID":"CDISCPILOT01","USUBJID":"01-701-1015","PARAMCD":"SYSBPST","PARAM":"Systolic Blood Pressure, Standing","ATPT":"STANDING","AVAL":147,"AVALU":"mmHg","SRCVISIT":"SCREENING 1","ADT":"2013-12-26","DY":-7,"ADY":-7,"AVISIT":"Baseline","AVISITN":0,"ATARGDY":1,"BASE":121,"ABLFL":null,"CHG":null,"PCHG":null,"ANL01FL":null,"DTYPE":null,"ANL02FL":null,"TRTP":"Placebo","TRT01P":"Placebo","TRT01PN":null,"TRT01A":"Placebo","SITEGR1":900,"SITEID":701,"TRTSDT":"2014-01-02","TRTEDT":"2014-07-02","ITTFL":"Y","SAFFL":"Y","EFFFL":"N","COMPLFL":"Y"},{"STUDYID":"CDISCPILOT01","USUBJID":"01-701-1015","PARAMCD":"SYSBPSU","PARAM":"Systolic Blood Pressure, Supine","ATPT":"SUPINE","AVAL":138,"AVALU":"mmHg","SRCVISIT":"SCREENING 2","ADT":"2013-12-31","DY":-2,"ADY":-2,"AVISIT":"Baseline","AVISITN":0,"ATARGDY":1,"BASE":130,"ABLFL":null,"CHG":null,"PCHG":null,"ANL01FL":null,"DTYPE":null,"ANL02FL":null,"TRTP":"Placebo","TRT01P":"Placebo","TRT01PN":null,"TRT01A":"Placebo","SITEGR1":900,"SITEID":701,"TRTSDT":"2014-01-02","TRTEDT":"2014-07-02","ITTFL":"Y","SAFFL":"Y","EFFFL":"N","COMPLFL":"Y"},{"STUDYID":"CDISCPILOT01","USUBJID":"01-701-1015","PARAMCD":"SYSBPST","PARAM":"Systolic Blood Pressure, Standing","ATPT":"STANDING","AVAL":137,"AVALU":"mmHg","SRCVISIT":"SCREENING 2","ADT":"2013-12-31","DY":-2,"ADY":-2,"AVISIT":"Baseline","AVISITN":0,"ATARGDY":1,"BASE":121,"ABLFL":null,"CHG":null,"PCHG":null,"ANL01FL":null,"DTYPE":null,"ANL02FL":null,"TRTP":"Placebo","TRT01P":"Placebo","TRT01PN":null,"TRT01A":"Placebo","SITEGR1":900,"SITEID":701,"TRTSDT":"2014-01-02","TRTEDT":"2014-07-02","ITTFL":"Y","SAFFL":"Y","EFFFL":"N","COMPLFL":"Y"},{"STUDYID":"CDISCPILOT01","USUBJID":"01-701-1015","PARAMCD":"SYSBPST","PARAM":"Systolic Blood Pressure, Standing","ATPT":"STANDING","AVAL":145,"AVALU":"mmHg","SRCVISIT":"SCREENING 2","ADT":"2013-12-31","DY":-2,"ADY":-2,"AVISIT":"Baseline","AVISITN":0,"ATARGDY":1,"BASE":121,"ABLFL":null,"CHG":null,"PCHG":null,"ANL01FL":null,"DTYPE":null,"ANL02FL":null,"TRTP":"Placebo","TRT01P":"Placebo","TRT01PN":null,"TRT01A":"Placebo","SITEGR1":900,"SITEID":701,"TRTSDT":"2014-01-02","TRTEDT":"2014-07-02","ITTFL":"Y","SAFFL":"Y","EFFFL":"N","COMPLFL":"Y"},{"STUDYID":"CDISCPILOT01","USUBJID":"01-701-1015","PARAMCD":"SYSBPSU","PARAM":"Systolic Blood Pressure, Supine","ATPT":"SUPINE","AVAL":130,"AVALU":"mmHg","SRCVISIT":"BASELINE","ADT":"2014-01-02","DY":1,"ADY":1,"AVISIT":"Baseline","AVISITN":0,"ATARGDY":1,"BASE":130,"ABLFL":"Y","CHG":null,"PCHG":null,"ANL01FL":"Y","DTYPE":null,"ANL02FL":"Y","TRTP":"Placebo","TRT01P":"Placebo","TRT01PN":null,"TRT01A":"Placebo","SITEGR1":900,"SITEID":701,"TRTSDT":"2014-01-02","TRTEDT":"2014-07-02","ITTFL":"Y","SAFFL":"Y","EFFFL":"N","COMPLFL":"Y"},{"STUDYID":"CDISCPILOT01","USUBJID":"01-701-1015","PARAMCD":"SYSBPST","PARAM":"Systolic Blood Pressure, Standing","ATPT":"STANDING","AVAL":121,"AVALU":"mmHg","SRCVISIT":"BASELINE","ADT":"2014-01-02","DY":1,"ADY":1,"AVISIT":"Baseline","AVISITN":0,"ATARGDY":1,"BASE":121,"ABLFL":"Y","CHG":null,"PCHG":null,"ANL01FL":"Y","DTYPE":null,"ANL02FL":"Y","TRTP":"Placebo","TRT01P":"Placebo","TRT01PN":null,"TRT01A":"Placebo","SITEGR1":900,"SITEID":701,"TRTSDT":"2014-01-02","TRTEDT":"2014-07-02","ITTFL":"Y","SAFFL":"Y","EFFFL":"N","COMPLFL":"Y"},{"STUDYID":"CDISCPILOT01","USUBJID":"01-701-1015","PARAMCD":"SYSBPST","PARAM":"Systolic Blood Pressure, Standing","ATPT":"STANDING","AVAL":131,"AVALU":"mmHg","SRCVISIT":"BASELINE","ADT":"2014-01-02","DY":1,"ADY":1,"AVISIT":"Baseline","AVISITN":0,"ATARGDY":1,"BASE":121,"ABLFL":"Y","CHG":null,"PCHG":null,"ANL01FL":null,"DTYPE":null,"ANL02FL":null,"TRTP":"Placebo","TRT01P":"Placebo","TRT01PN":null,"TRT01A":"Placebo","SITEGR1":900,"SITEID":701,"TRTSDT":"2014-01-02","TRTEDT":"2014-07-02","ITTFL":"Y","SAFFL":"Y","EFFFL":"N","COMPLFL":"Y"},{"STUDYID":"CDISCPILOT01","USUBJID":"01-701-1015","PARAMCD":"SYSBPSU","PARAM":"Systolic Blood Pressure, Supine","ATPT":"SUPINE","AVAL":137,"AVALU":"mmHg","SRCVISIT":"AMBUL ECG PLACEMENT","ADT":"2014-01-14","DY":13,"ADY":13,"AVISIT":"Week 2","AVISITN":2,"ATARGDY":15,"BASE":130,"ABLFL":null,"CHG":7,"PCHG":5.3846,"ANL01FL":null,"DTYPE":null,"ANL02FL":null,"TRTP":"Placebo","TRT01P":"Placebo","TRT01PN":null,"TRT01A":"Placebo","SITEGR1":900,"SITEID":701,"TRTSDT":"2014-01-02","TRTEDT":"2014-07-02","ITTFL":"Y","SAFFL":"Y","EFFFL":"N","COMPLFL":"Y"},{"STUDYID":"CDISCPILOT01","USUBJID":"01-701-1015","PARAMCD":"SYSBPST","PARAM":"Systolic Blood Pressure, Standing","ATPT":"STANDING","AVAL":127,"AVALU":"mmHg","SRCVISIT":"AMBUL ECG PLACEMENT","ADT":"2014-01-14","DY":13,"ADY":13,"AVISIT":"Week 2","AVISITN":2,"ATARGDY":15,"BASE":121,"ABLFL":null,"CHG":6,"PCHG":4.9587,"ANL01FL":null,"DTYPE":null,"ANL02FL":null,"TRTP":"Placebo","TRT01P":"Placebo","TRT01PN":null,"TRT01A":"Placebo","SITEGR1":900,"SITEID":701,"TRTSDT":"2014-01-02","TRTEDT":"2014-07-02","ITTFL":"Y","SAFFL":"Y","EFFFL":"N","COMPLFL":"Y"},{"STUDYID":"CDISCPILOT01","USUBJID":"01-701-1015","PARAMCD":"SYSBPST","PARAM":"Systolic Blood Pressure, Standing","ATPT":"STANDING","AVAL":146,"AVALU":"mmHg","SRCVISIT":"AMBUL ECG PLACEMENT","ADT":"2014-01-14","DY":13,"ADY":13,"AVISIT":"Week 2","AVISITN":2,"ATARGDY":15,"BASE":121,"ABLFL":null,"CHG":25,"PCHG":20.6612,"ANL01FL":null,"DTYPE":null,"ANL02FL":null,"TRTP":"Placebo","TRT01P":"Placebo","TRT01PN":null,"TRT01A":"Placebo","SITEGR1":900,"SITEID":701,"TRTSDT":"2014-01-02","TRTEDT":"2014-07-02","ITTFL":"Y","SAFFL":"Y","EFFFL":"N","COMPLFL":"Y"},{"STUDYID":"CDISCPILOT01","USUBJID":"01-701-1015","PARAMCD":"SYSBPSU","PARAM":"Systolic Blood Pressure, Supine","ATPT":"SUPINE","AVAL":114,"AVALU":"mmHg","SRCVISIT":"WEEK 2","ADT":"2014-01-16","DY":15,"ADY":15,"AVISIT":"Week 2","AVISITN":2,"ATARGDY":15,"BASE":130,"ABLFL":null,"CHG":-16,"PCHG":-12.3077,"ANL01FL":"Y","DTYPE":null,"ANL02FL":"Y","TRTP":"Placebo","TRT01P":"Placebo","TRT01PN":null,"TRT01A":"Placebo","SITEGR1":900,"SITEID":701,"TRTSDT":"2014-01-02","TRTEDT":"2014-07-02","ITTFL":"Y","SAFFL":"Y","EFFFL":"N","COMPLFL":"Y"},{"STUDYID":"CDISCPILOT01","USUBJID":"01-701-1015","PARAMCD":"SYSBPST","PARAM":"Systolic Blood Pressure, Standing","ATPT":"STANDING","AVAL":121,"AVALU":"mmHg","SRCVISIT":"WEEK 2","ADT":"2014-01-16","DY":15,"ADY":15,"AVISIT":"Week 2","AVISITN":2,"ATARGDY":15,"BASE":121,"ABLFL":null,"CHG":0,"PCHG":0,"ANL01FL":"Y","DTYPE":null,"ANL02FL":"Y","TRTP":"Placebo","TRT01P":"Placebo","TRT01PN":null,"TRT01A":"Placebo","SITEGR1":900,"SITEID":701,"TRTSDT":"2014-01-02","TRTEDT":"2014-07-02","ITTFL":"Y","SAFFL":"Y","EFFFL":"N","COMPLFL":"Y"},{"STUDYID":"CDISCPILOT01","USUBJID":"01-701-1015","PARAMCD":"SYSBPST","PARAM":"Systolic Blood Pressure, Standing","ATPT":"STANDING","AVAL":132,"AVALU":"mmHg","SRCVISIT":"WEEK 2","ADT":"2014-01-16","DY":15,"ADY":15,"AVISIT":"Week 2","AVISITN":2,"ATARGDY":15,"BASE":121,"ABLFL":null,"CHG":11,"PCHG":9.0909,"ANL01FL":null,"DTYPE":null,"ANL02FL":null,"TRTP":"Placebo","TRT01P":"Placebo","TRT01PN":null,"TRT01A":"Placebo","SITEGR1":900,"SITEID":701,"TRTSDT":"2014-01-02","TRTEDT":"2014-07-02","ITTFL":"Y","SAFFL":"Y","EFFFL":"N","COMPLFL":"Y"},{"STUDYID":"CDISCPILOT01","USUBJID":"01-701-1015","PARAMCD":"SYSBPSU","PARAM":"Systolic Blood Pressure, Supine","ATPT":"SUPINE","AVAL":138,"AVALU":"mmHg","SRCVISIT":"WEEK 4","ADT":"2014-01-30","DY":29,"ADY":29,"AVISIT":"Week 4","AVISITN":4,"ATARGDY":29,"BASE":130,"ABLFL":null,"CHG":8,"PCHG":6.1538,"ANL01FL":"Y","DTYPE":null,"ANL02FL":"Y","TRTP":"Placebo","TRT01P":"Placebo","TRT01PN":null,"TRT01A":"Placebo","SITEGR1":900,"SITEID":701,"TRTSDT":"2014-01-02","TRTEDT":"2014-07-02","ITTFL":"Y","SAFFL":"Y","EFFFL":"N","COMPLFL":"Y"},{"STUDYID":"CDISCPILOT01","USUBJID":"01-701-1015","PARAMCD":"SYSBPST","PARAM":"Systolic Blood Pressure, Standing","ATPT":"STANDING","AVAL":137,"AVALU":"mmHg","SRCVISIT":"WEEK 4","ADT":"2014-01-30","DY":29,"ADY":29,"AVISIT":"Week 4","AVISITN":4,"ATARGDY":29,"BASE":121,"ABLFL":null,"CHG":16,"PCHG":13.2231,"ANL01FL":"Y","DTYPE":null,"ANL02FL":"Y","TRTP":"Placebo","TRT01P":"Placebo","TRT01PN":null,"TRT01A":"Placebo","SITEGR1":900,"SITEID":701,"TRTSDT":"2014-01-02","TRTEDT":"2014-07-02","ITTFL":"Y","SAFFL":"Y","EFFFL":"N","COMPLFL":"Y"},{"STUDYID":"CDISCPILOT01","USUBJID":"01-701-1015","PARAMCD":"SYSBPST","PARAM":"Systolic Blood Pressure, Standing","ATPT":"STANDING","AVAL":132,"AVALU":"mmHg","SRCVISIT":"WEEK 4","ADT":"2014-01-30","DY":29,"ADY":29,"AVISIT":"Week 4","AVISITN":4,"ATARGDY":29,"BASE":121,"ABLFL":null,"CHG":11,"PCHG":9.0909,"ANL01FL":null,"DTYPE":null,"ANL02FL":null,"TRTP":"Placebo","TRT01P":"Placebo","TRT01PN":null,"TRT01A":"Placebo","SITEGR1":900,"SITEID":701,"TRTSDT":"2014-01-02","TRTEDT":"2014-07-02","ITTFL":"Y","SAFFL":"Y","EFFFL":"N","COMPLFL":"Y"},{"STUDYID":"CDISCPILOT01","USUBJID":"01-701-1015","PARAMCD":"SYSBPSU","PARAM":"Systolic Blood Pressure, Supine","ATPT":"SUPINE","AVAL":138,"AVALU":"mmHg","SRCVISIT":"AMBUL ECG REMOVAL","ADT":"2014-02-01","DY":31,"ADY":31,"AVISIT":"Week 4","AVISITN":4,"ATARGDY":29,"BASE":130,"ABLFL":null,"CHG":8,"PCHG":6.1538,"ANL01FL":null,"DTYPE":null,"ANL02FL":null,"TRTP":"Placebo","TRT01P":"Placebo","TRT01PN":null,"TRT01A":"Placebo","SITEGR1":900,"SITEID":701,"TRTSDT":"2014-01-02","TRTEDT":"2014-07-02","ITTFL":"Y","SAFFL":"Y","EFFFL":"N","COMPLFL":"Y"},{"STUDYID":"CDISCPILOT01","USUBJID":"01-701-1015","PARAMCD":"SYSBPST","PARAM":"Systolic Blood Pressure, Standing","ATPT":"STANDING","AVAL":131,"AVALU":"mmHg","SRCVISIT":"AMBUL ECG REMOVAL","ADT":"2014-02-01","DY":31,"ADY":31,"AVISIT":"Week 4","AVISITN":4,"ATARGDY":29,"BASE":121,"ABLFL":null,"CHG":10,"PCHG":8.2645,"ANL01FL":null,"DTYPE":null,"ANL02FL":null,"TRTP":"Placebo","TRT01P":"Placebo","TRT01PN":null,"TRT01A":"Placebo","SITEGR1":900,"SITEID":701,"TRTSDT":"2014-01-02","TRTEDT":"2014-07-02","ITTFL":"Y","SAFFL":"Y","EFFFL":"N","COMPLFL":"Y"},{"STUDYID":"CDISCPILOT01","USUBJID":"01-701-1015","PARAMCD":"SYSBPST","PARAM":"Systolic Blood Pressure, Standing","ATPT":"STANDING","AVAL":123,"AVALU":"mmHg","SRCVISIT":"AMBUL ECG REMOVAL","ADT":"2014-02-01","DY":31,"ADY":31,"AVISIT":"Week 4","AVISITN":4,"ATARGDY":29,"BASE":121,"ABLFL":null,"CHG":2,"PCHG":1.6529,"ANL01FL":null,"DTYPE":null,"ANL02FL":null,"TRTP":"Placebo","TRT01P":"Placebo","TRT01PN":null,"TRT01A":"Placebo","SITEGR1":900,"SITEID":701,"TRTSDT":"2014-01-02","TRTEDT":"2014-07-02","ITTFL":"Y","SAFFL":"Y","EFFFL":"N","COMPLFL":"Y"},{"STUDYID":"CDISCPILOT01","USUBJID":"01-701-1015","PARAMCD":"SYSBPSU","PARAM":"Systolic Blood Pressure, Supine","ATPT":"SUPINE","AVAL":148,"AVALU":"mmHg","SRCVISIT":"WEEK 6","ADT":"2014-02-12","DY":42,"ADY":42,"AVISIT":"Week 6","AVISITN":6,"ATARGDY":43,"BASE":130,"ABLFL":null,"CHG":18,"PCHG":13.8462,"ANL01FL":"Y","DTYPE":null,"ANL02FL":"Y","TRTP":"Placebo","TRT01P":"Placebo","TRT01PN":null,"TRT01A":"Placebo","SITEGR1":900,"SITEID":701,"TRTSDT":"2014-01-02","TRTEDT":"2014-07-02","ITTFL":"Y","SAFFL":"Y","EFFFL":"N","COMPLFL":"Y"},{"STUDYID":"CDISCPILOT01","USUBJID":"01-701-1015","PARAMCD":"SYSBPST","PARAM":"Systolic Blood Pressure, Standing","ATPT":"STANDING","AVAL":137,"AVALU":"mmHg","SRCVISIT":"WEEK 6","ADT":"2014-02-12","DY":42,"ADY":42,"AVISIT":"Week 6","AVISITN":6,"ATARGDY":43,"BASE":121,"ABLFL":null,"CHG":16,"PCHG":13.2231,"ANL01FL":"Y","DTYPE":null,"ANL02FL":"Y","TRTP":"Placebo","TRT01P":"Placebo","TRT01PN":null,"TRT01A":"Placebo","SITEGR1":900,"SITEID":701,"TRTSDT":"2014-01-02","TRTEDT":"2014-07-02","ITTFL":"Y","SAFFL":"Y","EFFFL":"N","COMPLFL":"Y"},{"STUDYID":"CDISCPILOT01","USUBJID":"01-701-1015","PARAMCD":"SYSBPST","PARAM":"Systolic Blood Pressure, Standing","ATPT":"STANDING","AVAL":138,"AVALU":"mmHg","SRCVISIT":"WEEK 6","ADT":"2014-02-12","DY":42,"ADY":42,"AVISIT":"Week 6","AVISITN":6,"ATARGDY":43,"BASE":121,"ABLFL":null,"CHG":17,"PCHG":14.0496,"ANL01FL":null,"DTYPE":null,"ANL02FL":null,"TRTP":"Placebo","TRT01P":"Placebo","TRT01PN":null,"TRT01A":"Placebo","SITEGR1":900,"SITEID":701,"TRTSDT":"2014-01-02","TRTEDT":"2014-07-02","ITTFL":"Y","SAFFL":"Y","EFFFL":"N","COMPLFL":"Y"},{"STUDYID":"CDISCPILOT01","USUBJID":"01-701-1015","PARAMCD":"SYSBPSU","PARAM":"Systolic Blood Pressure, Supine","ATPT":"SUPINE","AVAL":138,"AVALU":"mmHg","SRCVISIT":"WEEK 8","ADT":"2014-03-05","DY":63,"ADY":63,"AVISIT":"Week 8","AVISITN":8,"ATARGDY":57,"BASE":130,"ABLFL":null,"CHG":8,"PCHG":6.1538,"ANL01FL":"Y","DTYPE":null,"ANL02FL":"Y","TRTP":"Placebo","TRT01P":"Placebo","TRT01PN":null,"TRT01A":"Placebo","SITEGR1":900,"SITEID":701,"TRTSDT":"2014-01-02","TRTEDT":"2014-07-02","ITTFL":"Y","SAFFL":"Y","EFFFL":"N","COMPLFL":"Y"},{"STUDYID":"CDISCPILOT01","USUBJID":"01-701-1015","PARAMCD":"SYSBPST","PARAM":"Systolic Blood Pressure, Standing","ATPT":"STANDING","AVAL":146,"AVALU":"mmHg","SRCVISIT":"WEEK 8","ADT":"2014-03-05","DY":63,"ADY":63,"AVISIT":"Week 8","AVISITN":8,"ATARGDY":57,"BASE":121,"ABLFL":null,"CHG":25,"PCHG":20.6612,"ANL01FL":"Y","DTYPE":null,"ANL02FL":"Y","TRTP":"Placebo","TRT01P":"Placebo","TRT01PN":null,"TRT01A":"Placebo","SITEGR1":900,"SITEID":701,"TRTSDT":"2014-01-02","TRTEDT":"2014-07-02","ITTFL":"Y","SAFFL":"Y","EFFFL":"N","COMPLFL":"Y"},{"STUDYID":"CDISCPILOT01","USUBJID":"01-701-1015","PARAMCD":"SYSBPST","PARAM":"Systolic Blood Pressure, Standing","ATPT":"STANDING","AVAL":140,"AVALU":"mmHg","SRCVISIT":"WEEK 8","ADT":"2014-03-05","DY":63,"ADY":63,"AVISIT":"Week 8","AVISITN":8,"ATARGDY":57,"BASE":121,"ABLFL":null,"CHG":19,"PCHG":15.7025,"ANL01FL":null,"DTYPE":null,"ANL02FL":null,"TRTP":"Placebo","TRT01P":"Placebo","TRT01PN":null,"TRT01A":"Placebo","SITEGR1":900,"SITEID":701,"TRTSDT":"2014-01-02","TRTEDT":"2014-07-02","ITTFL":"Y","SAFFL":"Y","EFFFL":"N","COMPLFL":"Y"},{"STUDYID":"CDISCPILOT01","USUBJID":"01-701-1015","PARAMCD":"SYSBPSU","PARAM":"Systolic Blood Pressure, Supine","ATPT":"SUPINE","AVAL":139,"AVALU":"mmHg","SRCVISIT":"WEEK 12","ADT":"2014-03-26","DY":84,"ADY":84,"AVISIT":"Week 12","AVISITN":12,"ATARGDY":85,"BASE":130,"ABLFL":null,"CHG":9,"PCHG":6.9231,"ANL01FL":"Y","DTYPE":null,"ANL02FL":"Y","TRTP":"Placebo","TRT01P":"Placebo","TRT01PN":null,"TRT01A":"Placebo","SITEGR1":900,"SITEID":701,"TRTSDT":"2014-01-02","TRTEDT":"2014-07-02","ITTFL":"Y","SAFFL":"Y","EFFFL":"N","COMPLFL":"Y"},{"STUDYID":"CDISCPILOT01","USUBJID":"01-701-1015","PARAMCD":"SYSBPST","PARAM":"Systolic Blood Pressure, Standing","ATPT":"STANDING","AVAL":146,"AVALU":"mmHg","SRCVISIT":"WEEK 12","ADT":"2014-03-26","DY":84,"ADY":84,"AVISIT":"Week 12","AVISITN":12,"ATARGDY":85,"BASE":121,"ABLFL":null,"CHG":25,"PCHG":20.6612,"ANL01FL":"Y","DTYPE":null,"ANL02FL":"Y","TRTP":"Placebo","TRT01P":"Placebo","TRT01PN":null,"TRT01A":"Placebo","SITEGR1":900,"SITEID":701,"TRTSDT":"2014-01-02","TRTEDT":"2014-07-02","ITTFL":"Y","SAFFL":"Y","EFFFL":"N","COMPLFL":"Y"},{"STUDYID":"CDISCPILOT01","USUBJID":"01-701-1015","PARAMCD":"SYSBPST","PARAM":"Systolic Blood Pressure, Standing","ATPT":"STANDING","AVAL":138,"AVALU":"mmHg","SRCVISIT":"WEEK 12","ADT":"2014-03-26","DY":84,"ADY":84,"AVISIT":"Week 12","AVISITN":12,"ATARGDY":85,"BASE":121,"ABLFL":null,"CHG":17,"PCHG":14.0496,"ANL01FL":null,"DTYPE":null,"ANL02FL":null,"TRTP":"Placebo","TRT01P":"Placebo","TRT01PN":null,"TRT01A":"Placebo","SITEGR1":900,"SITEID":701,"TRTSDT":"2014-01-02","TRTEDT":"2014-07-02","ITTFL":"Y","SAFFL":"Y","EFFFL":"N","COMPLFL":"Y"},{"STUDYID":"CDISCPILOT01","USUBJID":"01-701-1015","PARAMCD":"SYSBPSU","PARAM":"Systolic Blood Pressure, Supine","ATPT":"SUPINE","AVAL":163,"AVALU":"mmHg","SRCVISIT":"WEEK 16","ADT":"2014-05-07","DY":126,"ADY":126,"AVISIT":"Week 16","AVISITN":16,"ATARGDY":113,"BASE":130,"ABLFL":null,"CHG":33,"PCHG":25.3846,"ANL01FL":"Y","DTYPE":null,"ANL02FL":"Y","TRTP":"Placebo","TRT01P":"Placebo","TRT01PN":null,"TRT01A":"Placebo","SITEGR1":900,"SITEID":701,"TRTSDT":"2014-01-02","TRTEDT":"2014-07-02","ITTFL":"Y","SAFFL":"Y","EFFFL":"N","COMPLFL":"Y"},{"STUDYID":"CDISCPILOT01","USUBJID":"01-701-1015","PARAMCD":"SYSBPST","PARAM":"Systolic Blood Pressure, Standing","ATPT":"STANDING","AVAL":145,"AVALU":"mmHg","SRCVISIT":"WEEK 16","ADT":"2014-05-07","DY":126,"ADY":126,"AVISIT":"Week 16","AVISITN":16,"ATARGDY":113,"BASE":121,"ABLFL":null,"CHG":24,"PCHG":19.8347,"ANL01FL":"Y","DTYPE":null,"ANL02FL":"Y","TRTP":"Placebo","TRT01P":"Placebo","TRT01PN":null,"TRT01A":"Placebo","SITEGR1":900,"SITEID":701,"TRTSDT":"2014-01-02","TRTEDT":"2014-07-02","ITTFL":"Y","SAFFL":"Y","EFFFL":"N","COMPLFL":"Y"},{"STUDYID":"CDISCPILOT01","USUBJID":"01-701-1015","PARAMCD":"SYSBPST","PARAM":"Systolic Blood Pressure, Standing","ATPT":"STANDING","AVAL":152,"AVALU":"mmHg","SRCVISIT":"WEEK 16","ADT":"2014-05-07","DY":126,"ADY":126,"AVISIT":"Week 16","AVISITN":16,"ATARGDY":113,"BASE":121,"ABLFL":null,"CHG":31,"PCHG":25.6198,"ANL01FL":null,"DTYPE":null,"ANL02FL":null,"TRTP":"Placebo","TRT01P":"Placebo","TRT01PN":null,"TRT01A":"Placebo","SITEGR1":900,"SITEID":701,"TRTSDT":"2014-01-02","TRTEDT":"2014-07-02","ITTFL":"Y","SAFFL":"Y","EFFFL":"N","COMPLFL":"Y"},{"STUDYID":"CDISCPILOT01","USUBJID":"01-701-1015","PARAMCD":"SYSBPSU","PARAM":"Systolic Blood Pressure, Supine","ATPT":"SUPINE","AVAL":137,"AVALU":"mmHg","SRCVISIT":"WEEK 20","ADT":"2014-05-21","DY":140,"ADY":140,"AVISIT":"Week 20","AVISITN":20,"ATARGDY":141,"BASE":130,"ABLFL":null,"CHG":7,"PCHG":5.3846,"ANL01FL":"Y","DTYPE":null,"ANL02FL":"Y","TRTP":"Placebo","TRT01P":"Placebo","TRT01PN":null,"TRT01A":"Placebo","SITEGR1":900,"SITEID":701,"TRTSDT":"2014-01-02","TRTEDT":"2014-07-02","ITTFL":"Y","SAFFL":"Y","EFFFL":"N","COMPLFL":"Y"},{"STUDYID":"CDISCPILOT01","USUBJID":"01-701-1015","PARAMCD":"SYSBPST","PARAM":"Systolic Blood Pressure, Standing","ATPT":"STANDING","AVAL":139,"AVALU":"mmHg","SRCVISIT":"WEEK 20","ADT":"2014-05-21","DY":140,"ADY":140,"AVISIT":"Week 20","AVISITN":20,"ATARGDY":141,"BASE":121,"ABLFL":null,"CHG":18,"PCHG":14.876,"ANL01FL":"Y","DTYPE":null,"ANL02FL":"Y","TRTP":"Placebo","TRT01P":"Placebo","TRT01PN":null,"TRT01A":"Placebo","SITEGR1":900,"SITEID":701,"TRTSDT":"2014-01-02","TRTEDT":"2014-07-02","ITTFL":"Y","SAFFL":"Y","EFFFL":"N","COMPLFL":"Y"},{"STUDYID":"CDISCPILOT01","USUBJID":"01-701-1015","PARAMCD":"SYSBPST","PARAM":"Systolic Blood Pressure, Standing","ATPT":"STANDING","AVAL":136,"AVALU":"mmHg","SRCVISIT":"WEEK 20","ADT":"2014-05-21","DY":140,"ADY":140,"AVISIT":"Week 20","AVISITN":20,"ATARGDY":141,"BASE":121,"ABLFL":null,"CHG":15,"PCHG":12.3967,"ANL01FL":null,"DTYPE":null,"ANL02FL":null,"TRTP":"Placebo","TRT01P":"Placebo","TRT01PN":null,"TRT01A":"Placebo","SITEGR1":900,"SITEID":701,"TRTSDT":"2014-01-02","TRTEDT":"2014-07-02","ITTFL":"Y","SAFFL":"Y","EFFFL":"N","COMPLFL":"Y"},{"STUDYID":"CDISCPILOT01","USUBJID":"01-701-1015","PARAMCD":"SYSBPSU","PARAM":"Systolic Blood Pressure, Supine","ATPT":"SUPINE","AVAL":129,"AVALU":"mmHg","SRCVISIT":"WEEK 24","ADT":"2014-06-18","DY":168,"ADY":168,"AVISIT":"Week 24","AVISITN":24,"ATARGDY":169,"BASE":130,"ABLFL":null,"CHG":-1,"PCHG":-0.7692,"ANL01FL":"Y","DTYPE":null,"ANL02FL":"Y","TRTP":"Placebo","TRT01P":"Placebo","TRT01PN":null,"TRT01A":"Placebo","SITEGR1":900,"SITEID":701,"TRTSDT":"2014-01-02","TRTEDT":"2014-07-02","ITTFL":"Y","SAFFL":"Y","EFFFL":"N","COMPLFL":"Y"},{"STUDYID":"CDISCPILOT01","USUBJID":"01-701-1015","PARAMCD":"SYSBPST","PARAM":"Systolic Blood Pressure, Standing","ATPT":"STANDING","AVAL":131,"AVALU":"mmHg","SRCVISIT":"WEEK 24","ADT":"2014-06-18","DY":168,"ADY":168,"AVISIT":"Week 24","AVISITN":24,"ATARGDY":169,"BASE":121,"ABLFL":null,"CHG":10,"PCHG":8.2645,"ANL01FL":"Y","DTYPE":null,"ANL02FL":"Y","TRTP":"Placebo","TRT01P":"Placebo","TRT01PN":null,"TRT01A":"Placebo","SITEGR1":900,"SITEID":701,"TRTSDT":"2014-01-02","TRTEDT":"2014-07-02","ITTFL":"Y","SAFFL":"Y","EFFFL":"N","COMPLFL":"Y"},{"STUDYID":"CDISCPILOT01","USUBJID":"01-701-1015","PARAMCD":"SYSBPST","PARAM":"Systolic Blood Pressure, Standing","ATPT":"STANDING","AVAL":137,"AVALU":"mmHg","SRCVISIT":"WEEK 24","ADT":"2014-06-18","DY":168,"ADY":168,"AVISIT":"Week 24","AVISITN":24,"ATARGDY":169,"BASE":121,"ABLFL":null,"CHG":16,"PCHG":13.2231,"ANL01FL":null,"DTYPE":null,"ANL02FL":null,"TRTP":"Placebo","TRT01P":"Placebo","TRT01PN":null,"TRT01A":"Placebo","SITEGR1":900,"SITEID":701,"TRTSDT":"2014-01-02","TRTEDT":"2014-07-02","ITTFL":"Y","SAFFL":"Y","EFFFL":"N","COMPLFL":"Y"},{"STUDYID":"CDISCPILOT01","USUBJID":"01-701-1015","PARAMCD":"SYSBPSU","PARAM":"Systolic Blood Pressure, Supine","ATPT":"SUPINE","AVAL":127,"AVALU":"mmHg","SRCVISIT":"WEEK 26","ADT":"2014-07-02","DY":182,"ADY":182,"AVISIT":"Week 26","AVISITN":26,"ATARGDY":183,"BASE":130,"ABLFL":null,"CHG":-3,"PCHG":-2.3077,"ANL01FL":"Y","DTYPE":null,"ANL02FL":"Y","TRTP":"Placebo","TRT01P":"Placebo","TRT01PN":null,"TRT01A":"Placebo","SITEGR1":900,"SITEID":701,"TRTSDT":"2014-01-02","TRTEDT":"2014-07-02","ITTFL":"Y","SAFFL":"Y","EFFFL":"N","COMPLFL":"Y"},{"STUDYID":"CDISCPILOT01","USUBJID":"01-701-1015","PARAMCD":"SYSBPST","PARAM":"Systolic Blood Pressure, Standing","ATPT":"STANDING","AVAL":128,"AVALU":"mmHg","SRCVISIT":"WEEK 26","ADT":"2014-07-02","DY":182,"ADY":182,"AVISIT":"Week 26","AVISITN":26,"ATARGDY":183,"BASE":121,"ABLFL":null,"CHG":7,"PCHG":5.7851,"ANL01FL":"Y","DTYPE":null,"ANL02FL":"Y","TRTP":"Placebo","TRT01P":"Placebo","TRT01PN":null,"TRT01A":"Placebo","SITEGR1":900,"SITEID":701,"TRTSDT":"2014-01-02","TRTEDT":"2014-07-02","ITTFL":"Y","SAFFL":"Y","EFFFL":"N","COMPLFL":"Y"},{"STUDYID":"CDISCPILOT01","USUBJID":"01-701-1015","PARAMCD":"SYSBPST","PARAM":"Systolic Blood Pressure, Standing","ATPT":"STANDING","AVAL":129,"AVALU":"mmHg","SRCVISIT":"WEEK 26","ADT":"2014-07-02","DY":182,"ADY":182,"AVISIT":"Week 26","AVISITN":26,"ATARGDY":183,"BASE":121,"ABLFL":null,"CHG":8,"PCHG":6.6116,"ANL01FL":null,"DTYPE":null,"ANL02FL":null,"TRTP":"Placebo","TRT01P":"Placebo","TRT01PN":null,"TRT01A":"Placebo","SITEGR1":900,"SITEID":701,"TRTSDT":"2014-01-02","TRTEDT":"2014-07-02","ITTFL":"Y","SAFFL":"Y","EFFFL":"N","COMPLFL":"Y"},{"STUDYID":"CDISCPILOT01","USUBJID":"01-701-1015","PARAMCD":"TEMP","PARAM":"Temperature","ATPT":null,"AVAL":36.06,"AVALU":"C","SRCVISIT":"SCREENING 1","ADT":"2013-12-26","DY":-7,"ADY":-7,"AVISIT":"Baseline","AVISITN":0,"ATARGDY":1,"BASE":36.22,"ABLFL":null,"CHG":null,"PCHG":null,"ANL01FL":null,"DTYPE":null,"ANL02FL":null,"TRTP":"Placebo","TRT01P":"Placebo","TRT01PN":null,"TRT01A":"Placebo","SITEGR1":900,"SITEID":701,"TRTSDT":"2014-01-02","TRTEDT":"2014-07-02","ITTFL":"Y","SAFFL":"Y","EFFFL":"N","COMPLFL":"Y"},{"STUDYID":"CDISCPILOT01","USUBJID":"01-701-1015","PARAMCD":"TEMP","PARAM":"Temperature","ATPT":null,"AVAL":36.11,"AVALU":"C","SRCVISIT":"SCREENING 2","ADT":"2013-12-31","DY":-2,"ADY":-2,"AVISIT":"Baseline","AVISITN":0,"ATARGDY":1,"BASE":36.22,"ABLFL":null,"CHG":null,"PCHG":null,"ANL01FL":null,"DTYPE":null,"ANL02FL":null,"TRTP":"Placebo","TRT01P":"Placebo","TRT01PN":null,"TRT01A":"Placebo","SITEGR1":900,"SITEID":701,"TRTSDT":"2014-01-02","TRTEDT":"2014-07-02","ITTFL":"Y","SAFFL":"Y","EFFFL":"N","COMPLFL":"Y"},{"STUDYID":"CDISCPILOT01","USUBJID":"01-701-1015","PARAMCD":"TEMP","PARAM":"Temperature","ATPT":null,"AVAL":36.22,"AVALU":"C","SRCVISIT":"BASELINE","ADT":"2014-01-02","DY":1,"ADY":1,"AVISIT":"Baseline","AVISITN":0,"ATARGDY":1,"BASE":36.22,"ABLFL":"Y","CHG":null,"PCHG":null,"ANL01FL":"Y","DTYPE":null,"ANL02FL":"Y","TRTP":"Placebo","TRT01P":"Placebo","TRT01PN":null,"TRT01A":"Placebo","SITEGR1":900,"SITEID":701,"TRTSDT":"2014-01-02","TRTEDT":"2014-07-02","ITTFL":"Y","SAFFL":"Y","EFFFL":"N","COMPLFL":"Y"},{"STUDYID":"CDISCPILOT01","USUBJID":"01-701-1015","PARAMCD":"TEMP","PARAM":"Temperature","ATPT":null,"AVAL":35.89,"AVALU":"C","SRCVISIT":"AMBUL ECG PLACEMENT","ADT":"2014-01-14","DY":13,"ADY":13,"AVISIT":"Week 2","AVISITN":2,"ATARGDY":15,"BASE":36.22,"ABLFL":null,"CHG":-0.33,"PCHG":-0.9111,"ANL01FL":null,"DTYPE":null,"ANL02FL":null,"TRTP":"Placebo","TRT01P":"Placebo","TRT01PN":null,"TRT01A":"Placebo","SITEGR1":900,"SITEID":701,"TRTSDT":"2014-01-02","TRTEDT":"2014-07-02","ITTFL":"Y","SAFFL":"Y","EFFFL":"N","COMPLFL":"Y"},{"STUDYID":"CDISCPILOT01","USUBJID":"01-701-1015","PARAMCD":"TEMP","PARAM":"Temperature","ATPT":null,"AVAL":36.5,"AVALU":"C","SRCVISIT":"WEEK 2","ADT":"2014-01-16","DY":15,"ADY":15,"AVISIT":"Week 2","AVISITN":2,"ATARGDY":15,"BASE":36.22,"ABLFL":null,"CHG":0.28,"PCHG":0.7731,"ANL01FL":"Y","DTYPE":null,"ANL02FL":"Y","TRTP":"Placebo","TRT01P":"Placebo","TRT01PN":null,"TRT01A":"Placebo","SITEGR1":900,"SITEID":701,"TRTSDT":"2014-01-02","TRTEDT":"2014-07-02","ITTFL":"Y","SAFFL":"Y","EFFFL":"N","COMPLFL":"Y"},{"STUDYID":"CDISCPILOT01","USUBJID":"01-701-1015","PARAMCD":"TEMP","PARAM":"Temperature","ATPT":null,"AVAL":36.11,"AVALU":"C","SRCVISIT":"WEEK 4","ADT":"2014-01-30","DY":29,"ADY":29,"AVISIT":"Week 4","AVISITN":4,"ATARGDY":29,"BASE":36.22,"ABLFL":null,"CHG":-0.11,"PCHG":-0.3037,"ANL01FL":"Y","DTYPE":null,"ANL02FL":"Y","TRTP":"Placebo","TRT01P":"Placebo","TRT01PN":null,"TRT01A":"Placebo","SITEGR1":900,"SITEID":701,"TRTSDT":"2014-01-02","TRTEDT":"2014-07-02","ITTFL":"Y","SAFFL":"Y","EFFFL":"N","COMPLFL":"Y"},{"STUDYID":"CDISCPILOT01","USUBJID":"01-701-1015","PARAMCD":"TEMP","PARAM":"Temperature","ATPT":null,"AVAL":36.39,"AVALU":"C","SRCVISIT":"AMBUL ECG REMOVAL","ADT":"2014-02-01","DY":31,"ADY":31,"AVISIT":"Week 4","AVISITN":4,"ATARGDY":29,"BASE":36.22,"ABLFL":null,"CHG":0.17,"PCHG":0.4694,"ANL01FL":null,"DTYPE":null,"ANL02FL":null,"TRTP":"Placebo","TRT01P":"Placebo","TRT01PN":null,"TRT01A":"Placebo","SITEGR1":900,"SITEID":701,"TRTSDT":"2014-01-02","TRTEDT":"2014-07-02","ITTFL":"Y","SAFFL":"Y","EFFFL":"N","COMPLFL":"Y"},{"STUDYID":"CDISCPILOT01","USUBJID":"01-701-1015","PARAMCD":"TEMP","PARAM":"Temperature","ATPT":null,"AVAL":36.33,"AVALU":"C","SRCVISIT":"WEEK 6","ADT":"2014-02-12","DY":42,"ADY":42,"AVISIT":"Week 6","AVISITN":6,"ATARGDY":43,"BASE":36.22,"ABLFL":null,"CHG":0.11,"PCHG":0.3037,"ANL01FL":"Y","DTYPE":null,"ANL02FL":"Y","TRTP":"Placebo","TRT01P":"Placebo","TRT01PN":null,"TRT01A":"Placebo","SITEGR1":900,"SITEID":701,"TRTSDT":"2014-01-02","TRTEDT":"2014-07-02","ITTFL":"Y","SAFFL":"Y","EFFFL":"N","COMPLFL":"Y"},{"STUDYID":"CDISCPILOT01","USUBJID":"01-701-1015","PARAMCD":"TEMP","PARAM":"Temperature","ATPT":null,"AVAL":36.67,"AVALU":"C","SRCVISIT":"WEEK 8","ADT":"2014-03-05","DY":63,"ADY":63,"AVISIT":"Week 8","AVISITN":8,"ATARGDY":57,"BASE":36.22,"ABLFL":null,"CHG":0.45,"PCHG":1.2424,"ANL01FL":"Y","DTYPE":null,"ANL02FL":"Y","TRTP":"Placebo","TRT01P":"Placebo","TRT01PN":null,"TRT01A":"Placebo","SITEGR1":900,"SITEID":701,"TRTSDT":"2014-01-02","TRTEDT":"2014-07-02","ITTFL":"Y","SAFFL":"Y","EFFFL":"N","COMPLFL":"Y"},{"STUDYID":"CDISCPILOT01","USUBJID":"01-701-1015","PARAMCD":"TEMP","PARAM":"Temperature","ATPT":null,"AVAL":36.33,"AVALU":"C","SRCVISIT":"WEEK 12","ADT":"2014-03-26","DY":84,"ADY":84,"AVISIT":"Week 12","AVISITN":12,"ATARGDY":85,"BASE":36.22,"ABLFL":null,"CHG":0.11,"PCHG":0.3037,"ANL01FL":"Y","DTYPE":null,"ANL02FL":"Y","TRTP":"Placebo","TRT01P":"Placebo","TRT01PN":null,"TRT01A":"Placebo","SITEGR1":900,"SITEID":701,"TRTSDT":"2014-01-02","TRTEDT":"2014-07-02","ITTFL":"Y","SAFFL":"Y","EFFFL":"N","COMPLFL":"Y"},{"STUDYID":"CDISCPILOT01","USUBJID":"01-701-1015","PARAMCD":"TEMP","PARAM":"Temperature","ATPT":null,"AVAL":36.61,"AVALU":"C","SRCVISIT":"WEEK 16","ADT":"2014-05-07","DY":126,"ADY":126,"AVISIT":"Week 16","AVISITN":16,"ATARGDY":113,"BASE":36.22,"ABLFL":null,"CHG":0.39,"PCHG":1.0768,"ANL01FL":"Y","DTYPE":null,"ANL02FL":"Y","TRTP":"Placebo","TRT01P":"Placebo","TRT01PN":null,"TRT01A":"Placebo","SITEGR1":900,"SITEID":701,"TRTSDT":"2014-01-02","TRTEDT":"2014-07-02","ITTFL":"Y","SAFFL":"Y","EFFFL":"N","COMPLFL":"Y"},{"STUDYID":"CDISCPILOT01","USUBJID":"01-701-1015","PARAMCD":"TEMP","PARAM":"Temperature","ATPT":null,"AVAL":36.33,"AVALU":"C","SRCVISIT":"WEEK 20","ADT":"2014-05-21","DY":140,"ADY":140,"AVISIT":"Week 20","AVISITN":20,"ATARGDY":141,"BASE":36.22,"ABLFL":null,"CHG":0.11,"PCHG":0.3037,"ANL01FL":"Y","DTYPE":null,"ANL02FL":"Y","TRTP":"Placebo","TRT01P":"Placebo","TRT01PN":null,"TRT01A":"Placebo","SITEGR1":900,"SITEID":701,"TRTSDT":"2014-01-02","TRTEDT":"2014-07-02","ITTFL":"Y","SAFFL":"Y","EFFFL":"N","COMPLFL":"Y"},{"STUDYID":"CDISCPILOT01","USUBJID":"01-701-1015","PARAMCD":"TEMP","PARAM":"Temperature","ATPT":null,"AVAL":36.5,"AVALU":"C","SRCVISIT":"WEEK 24","ADT":"2014-06-18","DY":168,"ADY":168,"AVISIT":"Week 24","AVISITN":24,"ATARGDY":169,"BASE":36.22,"ABLFL":null,"CHG":0.28,"PCHG":0.7731,"ANL01FL":"Y","DTYPE":null,"ANL02FL":"Y","TRTP":"Placebo","TRT01P":"Placebo","TRT01PN":null,"TRT01A":"Placebo","SITEGR1":900,"SITEID":701,"TRTSDT":"2014-01-02","TRTEDT":"2014-07-02","ITTFL":"Y","SAFFL":"Y","EFFFL":"N","COMPLFL":"Y"},{"STUDYID":"CDISCPILOT01","USUBJID":"01-701-1015","PARAMCD":"TEMP","PARAM":"Temperature","ATPT":null,"AVAL":36.22,"AVALU":"C","SRCVISIT":"WEEK 26","ADT":"2014-07-02","DY":182,"ADY":182,"AVISIT":"Week 26","AVISITN":26,"ATARGDY":183,"BASE":36.22,"ABLFL":null,"CHG":0,"PCHG":0,"ANL01FL":"Y","DTYPE":null,"ANL02FL":"Y","TRTP":"Placebo","TRT01P":"Placebo","TRT01PN":null,"TRT01A":"Placebo","SITEGR1":900,"SITEID":701,"TRTSDT":"2014-01-02","TRTEDT":"2014-07-02","ITTFL":"Y","SAFFL":"Y","EFFFL":"N","COMPLFL":"Y"},{"STUDYID":"CDISCPILOT01","USUBJID":"01-701-1015","PARAMCD":"WEIGHT","PARAM":"Weight","ATPT":null,"AVAL":53.98,"AVALU":"kg","SRCVISIT":"SCREENING 1","ADT":"2013-12-26","DY":-7,"ADY":-7,"AVISIT":"Baseline","AVISITN":0,"ATARGDY":1,"BASE":54.43,"ABLFL":null,"CHG":null,"PCHG":null,"ANL01FL":null,"DTYPE":null,"ANL02FL":null,"TRTP":"Placebo","TRT01P":"Placebo","TRT01PN":null,"TRT01A":"Placebo","SITEGR1":900,"SITEID":701,"TRTSDT":"2014-01-02","TRTEDT":"2014-07-02","ITTFL":"Y","SAFFL":"Y","EFFFL":"N","COMPLFL":"Y"},{"STUDYID":"CDISCPILOT01","USUBJID":"01-701-1015","PARAMCD":"WEIGHT","PARAM":"Weight","ATPT":null,"AVAL":54.43,"AVALU":"kg","SRCVISIT":"BASELINE","ADT":"2014-01-02","DY":1,"ADY":1,"AVISIT":"Baseline","AVISITN":0,"ATARGDY":1,"BASE":54.43,"ABLFL":"Y","CHG":null,"PCHG":null,"ANL01FL":"Y","DTYPE":null,"ANL02FL":"Y","TRTP":"Placebo","TRT01P":"Placebo","TRT01PN":null,"TRT01A":"Placebo","SITEGR1":900,"SITEID":701,"TRTSDT":"2014-01-02","TRTEDT":"2014-07-02","ITTFL":"Y","SAFFL":"Y","EFFFL":"N","COMPLFL":"Y"},{"STUDYID":"CDISCPILOT01","USUBJID":"01-701-1015","PARAMCD":"WEIGHT","PARAM":"Weight","ATPT":null,"AVAL":53.07,"AVALU":"kg","SRCVISIT":"WEEK 2","ADT":"2014-01-16","DY":15,"ADY":15,"AVISIT":"Week 2","AVISITN":2,"ATARGDY":15,"BASE":54.43,"ABLFL":null,"CHG":-1.36,"PCHG":-2.4986,"ANL01FL":"Y","DTYPE":null,"ANL02FL":"Y","TRTP":"Placebo","TRT01P":"Placebo","TRT01PN":null,"TRT01A":"Placebo","SITEGR1":900,"SITEID":701,"TRTSDT":"2014-01-02","TRTEDT":"2014-07-02","ITTFL":"Y","SAFFL":"Y","EFFFL":"N","COMPLFL":"Y"},{"STUDYID":"CDISCPILOT01","USUBJID":"01-701-1015","PARAMCD":"WEIGHT","PARAM":"Weight","ATPT":null,"AVAL":53.98,"AVALU":"kg","SRCVISIT":"WEEK 4","ADT":"2014-01-30","DY":29,"ADY":29,"AVISIT":"Week 4","AVISITN":4,"ATARGDY":29,"BASE":54.43,"ABLFL":null,"CHG":-0.45,"PCHG":-0.8267,"ANL01FL":"Y","DTYPE":null,"ANL02FL":"Y","TRTP":"Placebo","TRT01P":"Placebo","TRT01PN":null,"TRT01A":"Placebo","SITEGR1":900,"SITEID":701,"TRTSDT":"2014-01-02","TRTEDT":"2014-07-02","ITTFL":"Y","SAFFL":"Y","EFFFL":"N","COMPLFL":"Y"},{"STUDYID":"CDISCPILOT01","USUBJID":"01-701-1015","PARAMCD":"WEIGHT","PARAM":"Weight","ATPT":null,"AVAL":53.07,"AVALU":"kg","SRCVISIT":"WEEK 6","ADT":"2014-02-12","DY":42,"ADY":42,"AVISIT":"Week 6","AVISITN":6,"ATARGDY":43,"BASE":54.43,"ABLFL":null,"CHG":-1.36,"PCHG":-2.4986,"ANL01FL":"Y","DTYPE":null,"ANL02FL":"Y","TRTP":"Placebo","TRT01P":"Placebo","TRT01PN":null,"TRT01A":"Placebo","SITEGR1":900,"SITEID":701,"TRTSDT":"2014-01-02","TRTEDT":"2014-07-02","ITTFL":"Y","SAFFL":"Y","EFFFL":"N","COMPLFL":"Y"},{"STUDYID":"CDISCPILOT01","USUBJID":"01-701-1015","PARAMCD":"WEIGHT","PARAM":"Weight","ATPT":null,"AVAL":53.07,"AVALU":"kg","SRCVISIT":"WEEK 8","ADT":"2014-03-05","DY":63,"ADY":63,"AVISIT":"Week 8","AVISITN":8,"ATARGDY":57,"BASE":54.43,"ABLFL":null,"CHG":-1.36,"PCHG":-2.4986,"ANL01FL":"Y","DTYPE":null,"ANL02FL":"Y","TRTP":"Placebo","TRT01P":"Placebo","TRT01PN":null,"TRT01A":"Placebo","SITEGR1":900,"SITEID":701,"TRTSDT":"2014-01-02","TRTEDT":"2014-07-02","ITTFL":"Y","SAFFL":"Y","EFFFL":"N","COMPLFL":"Y"},{"STUDYID":"CDISCPILOT01","USUBJID":"01-701-1015","PARAMCD":"WEIGHT","PARAM":"Weight","ATPT":null,"AVAL":53.07,"AVALU":"kg","SRCVISIT":"WEEK 12","ADT":"2014-03-26","DY":84,"ADY":84,"AVISIT":"Week 12","AVISITN":12,"ATARGDY":85,"BASE":54.43,"ABLFL":null,"CHG":-1.36,"PCHG":-2.4986,"ANL01FL":"Y","DTYPE":null,"ANL02FL":"Y","TRTP":"Placebo","TRT01P":"Placebo","TRT01PN":null,"TRT01A":"Placebo","SITEGR1":900,"SITEID":701,"TRTSDT":"2014-01-02","TRTEDT":"2014-07-02","ITTFL":"Y","SAFFL":"Y","EFFFL":"N","COMPLFL":"Y"},{"STUDYID":"CDISCPILOT01","USUBJID":"01-701-1015","PARAMCD":"WEIGHT","PARAM":"Weight","ATPT":null,"AVAL":53.07,"AVALU":"kg","SRCVISIT":"WEEK 16","ADT":"2014-05-07","DY":126,"ADY":126,"AVISIT":"Week 16","AVISITN":16,"ATARGDY":113,"BASE":54.43,"ABLFL":null,"CHG":-1.36,"PCHG":-2.4986,"ANL01FL":"Y","DTYPE":null,"ANL02FL":"Y","TRTP":"Placebo","TRT01P":"Placebo","TRT01PN":null,"TRT01A":"Placebo","SITEGR1":900,"SITEID":701,"TRTSDT":"2014-01-02","TRTEDT":"2014-07-02","ITTFL":"Y","SAFFL":"Y","EFFFL":"N","COMPLFL":"Y"},{"STUDYID":"CDISCPILOT01","USUBJID":"01-701-1015","PARAMCD":"WEIGHT","PARAM":"Weight","ATPT":null,"AVAL":53.07,"AVALU":"kg","SRCVISIT":"WEEK 20","ADT":"2014-05-21","DY":140,"ADY":140,"AVISIT":"Week 20","AVISITN":20,"ATARGDY":141,"BASE":54.43,"ABLFL":null,"CHG":-1.36,"PCHG":-2.4986,"ANL01FL":"Y","DTYPE":null,"ANL02FL":"Y","TRTP":"Placebo","TRT01P":"Placebo","TRT01PN":null,"TRT01A":"Placebo","SITEGR1":900,"SITEID":701,"TRTSDT":"2014-01-02","TRTEDT":"2014-07-02","ITTFL":"Y","SAFFL":"Y","EFFFL":"N","COMPLFL":"Y"},{"STUDYID":"CDISCPILOT01","USUBJID":"01-701-1015","PARAMCD":"WEIGHT","PARAM":"Weight","ATPT":null,"AVAL":53.07,"AVALU":"kg","SRCVISIT":"WEEK 24","ADT":"2014-06-18","DY":168,"ADY":168,"AVISIT":"Week 24","AVISITN":24,"ATARGDY":169,"BASE":54.43,"ABLFL":null,"CHG":-1.36,"PCHG":-2.4986,"ANL01FL":"Y","DTYPE":null,"ANL02FL":"Y","TRTP":"Placebo","TRT01P":"Placebo","TRT01PN":null,"TRT01A":"Placebo","SITEGR1":900,"SITEID":701,"TRTSDT":"2014-01-02","TRTEDT":"2014-07-02","ITTFL":"Y","SAFFL":"Y","EFFFL":"N","COMPLFL":"Y"},{"STUDYID":"CDISCPILOT01","USUBJID":"01-701-1015","PARAMCD":"WEIGHT","PARAM":"Weight","ATPT":null,"AVAL":53.52,"AVALU":"kg","SRCVISIT":"WEEK 26","ADT":"2014-07-02","DY":182,"ADY":182,"AVISIT":"Week 26","AVISITN":26,"ATARGDY":183,"BASE":54.43,"ABLFL":null,"CHG":-0.91,"PCHG":-1.6719,"ANL01FL":"Y","DTYPE":null,"ANL02FL":"Y","TRTP":"Placebo","TRT01P":"Placebo","TRT01PN":null,"TRT01A":"Placebo","SITEGR1":900,"SITEID":701,"TRTSDT":"2014-01-02","TRTEDT":"2014-07-02","ITTFL":"Y","SAFFL":"Y","EFFFL":"N","COMPLFL":"Y"},{"STUDYID":"CDISCPILOT01","USUBJID":"01-701-1023","PARAMCD":"DIABPSU","PARAM":"Diastolic Blood Pressure, Supine","ATPT":"SUPINE","AVAL":86,"AVALU":"mmHg","SRCVISIT":"SCREENING 1","ADT":"2012-07-22","DY":-14,"ADY":-14,"AVISIT":"Baseline","AVISITN":0,"ATARGDY":1,"BASE":84,"ABLFL":null,"CHG":null,"PCHG":null,"ANL01FL":null,"DTYPE":null,"ANL02FL":null,"TRTP":"Placebo","TRT01P":"Placebo","TRT01PN":null,"TRT01A":"Placebo","SITEGR1":900,"SITEID":701,"TRTSDT":"2012-08-05","TRTEDT":"2012-09-01","ITTFL":"Y","SAFFL":"Y","EFFFL":"N","COMPLFL":"N"},{"STUDYID":"CDISCPILOT01","USUBJID":"01-701-1023","PARAMCD":"DIABPST","PARAM":"Diastolic Blood Pressure, Standing","ATPT":"STANDING","AVAL":89,"AVALU":"mmHg","SRCVISIT":"SCREENING 1","ADT":"2012-07-22","DY":-14,"ADY":-14,"AVISIT":"Baseline","AVISITN":0,"ATARGDY":1,"BASE":86,"ABLFL":null,"CHG":null,"PCHG":null,"ANL01FL":null,"DTYPE":null,"ANL02FL":null,"TRTP":"Placebo","TRT01P":"Placebo","TRT01PN":null,"TRT01A":"Placebo","SITEGR1":900,"SITEID":701,"TRTSDT":"2012-08-05","TRTEDT":"2012-09-01","ITTFL":"Y","SAFFL":"Y","EFFFL":"N","COMPLFL":"N"},{"STUDYID":"CDISCPILOT01","USUBJID":"01-701-1023","PARAMCD":"DIABPST","PARAM":"Diastolic Blood Pressure, Standing","ATPT":"STANDING","AVAL":90,"AVALU":"mmHg","SRCVISIT":"SCREENING 1","ADT":"2012-07-22","DY":-14,"ADY":-14,"AVISIT":"Baseline","AVISITN":0,"ATARGDY":1,"BASE":86,"ABLFL":null,"CHG":null,"PCHG":null,"ANL01FL":null,"DTYPE":null,"ANL02FL":null,"TRTP":"Placebo","TRT01P":"Placebo","TRT01PN":null,"TRT01A":"Placebo","SITEGR1":900,"SITEID":701,"TRTSDT":"2012-08-05","TRTEDT":"2012-09-01","ITTFL":"Y","SAFFL":"Y","EFFFL":"N","COMPLFL":"N"},{"STUDYID":"CDISCPILOT01","USUBJID":"01-701-1023","PARAMCD":"DIABPSU","PARAM":"Diastolic Blood Pressure, Supine","ATPT":"SUPINE","AVAL":77,"AVALU":"mmHg","SRCVISIT":"SCREENING 2","ADT":"2012-08-03","DY":-2,"ADY":-2,"AVISIT":"Baseline","AVISITN":0,"ATARGDY":1,"BASE":84,"ABLFL":null,"CHG":null,"PCHG":null,"ANL01FL":null,"DTYPE":null,"ANL02FL":null,"TRTP":"Placebo","TRT01P":"Placebo","TRT01PN":null,"TRT01A":"Placebo","SITEGR1":900,"SITEID":701,"TRTSDT":"2012-08-05","TRTEDT":"2012-09-01","ITTFL":"Y","SAFFL":"Y","EFFFL":"N","COMPLFL":"N"},{"STUDYID":"CDISCPILOT01","USUBJID":"01-701-1023","PARAMCD":"DIABPST","PARAM":"Diastolic Blood Pressure, Standing","ATPT":"STANDING","AVAL":79,"AVALU":"mmHg","SRCVISIT":"SCREENING 2","ADT":"2012-08-03","DY":-2,"ADY":-2,"AVISIT":"Baseline","AVISITN":0,"ATARGDY":1,"BASE":86,"ABLFL":null,"CHG":null,"PCHG":null,"ANL01FL":null,"DTYPE":null,"ANL02FL":null,"TRTP":"Placebo","TRT01P":"Placebo","TRT01PN":null,"TRT01A":"Placebo","SITEGR1":900,"SITEID":701,"TRTSDT":"2012-08-05","TRTEDT":"2012-09-01","ITTFL":"Y","SAFFL":"Y","EFFFL":"N","COMPLFL":"N"},{"STUDYID":"CDISCPILOT01","USUBJID":"01-701-1023","PARAMCD":"DIABPST","PARAM":"Diastolic Blood Pressure, Standing","ATPT":"STANDING","AVAL":85,"AVALU":"mmHg","SRCVISIT":"SCREENING 2","ADT":"2012-08-03","DY":-2,"ADY":-2,"AVISIT":"Baseline","AVISITN":0,"ATARGDY":1,"BASE":86,"ABLFL":null,"CHG":null,"PCHG":null,"ANL01FL":null,"DTYPE":null,"ANL02FL":null,"TRTP":"Placebo","TRT01P":"Placebo","TRT01PN":null,"TRT01A":"Placebo","SITEGR1":900,"SITEID":701,"TRTSDT":"2012-08-05","TRTEDT":"2012-09-01","ITTFL":"Y","SAFFL":"Y","EFFFL":"N","COMPLFL":"N"},{"STUDYID":"CDISCPILOT01","USUBJID":"01-701-1023","PARAMCD":"DIABPSU","PARAM":"Diastolic Blood Pressure, Supine","ATPT":"SUPINE","AVAL":84,"AVALU":"mmHg","SRCVISIT":"BASELINE","ADT":"2012-08-05","DY":1,"ADY":1,"AVISIT":"Baseline","AVISITN":0,"ATARGDY":1,"BASE":84,"ABLFL":"Y","CHG":null,"PCHG":null,"ANL01FL":"Y","DTYPE":null,"ANL02FL":"Y","TRTP":"Placebo","TRT01P":"Placebo","TRT01PN":null,"TRT01A":"Placebo","SITEGR1":900,"SITEID":701,"TRTSDT":"2012-08-05","TRTEDT":"2012-09-01","ITTFL":"Y","SAFFL":"Y","EFFFL":"N","COMPLFL":"N"},{"STUDYID":"CDISCPILOT01","USUBJID":"01-701-1023","PARAMCD":"DIABPST","PARAM":"Diastolic Blood Pressure, Standing","ATPT":"STANDING","AVAL":86,"AVALU":"mmHg","SRCVISIT":"BASELINE","ADT":"2012-08-05","DY":1,"ADY":1,"AVISIT":"Baseline","AVISITN":0,"ATARGDY":1,"BASE":86,"ABLFL":"Y","CHG":null,"PCHG":null,"ANL01FL":"Y","DTYPE":null,"ANL02FL":"Y","TRTP":"Placebo","TRT01P":"Placebo","TRT01PN":null,"TRT01A":"Placebo","SITEGR1":900,"SITEID":701,"TRTSDT":"2012-08-05","TRTEDT":"2012-09-01","ITTFL":"Y","SAFFL":"Y","EFFFL":"N","COMPLFL":"N"},{"STUDYID":"CDISCPILOT01","USUBJID":"01-701-1023","PARAMCD":"DIABPST","PARAM":"Diastolic Blood Pressure, Standing","ATPT":"STANDING","AVAL":88,"AVALU":"mmHg","SRCVISIT":"BASELINE","ADT":"2012-08-05","DY":1,"ADY":1,"AVISIT":"Baseline","AVISITN":0,"ATARGDY":1,"BASE":86,"ABLFL":"Y","CHG":null,"PCHG":null,"ANL01FL":null,"DTYPE":null,"ANL02FL":null,"TRTP":"Placebo","TRT01P":"Placebo","TRT01PN":null,"TRT01A":"Placebo","SITEGR1":900,"SITEID":701,"TRTSDT":"2012-08-05","TRTEDT":"2012-09-01","ITTFL":"Y","SAFFL":"Y","EFFFL":"N","COMPLFL":"N"},{"STUDYID":"CDISCPILOT01","USUBJID":"01-701-1023","PARAMCD":"DIABPSU","PARAM":"Diastolic Blood Pressure, Supine","ATPT":"SUPINE","AVAL":82,"AVALU":"mmHg","SRCVISIT":"AMBUL ECG PLACEMENT","ADT":"2012-08-26","DY":22,"ADY":22,"AVISIT":"Week 2","AVISITN":2,"ATARGDY":15,"BASE":84,"ABLFL":null,"CHG":-2,"PCHG":-2.381,"ANL01FL":"Y","DTYPE":null,"ANL02FL":"Y","TRTP":"Placebo","TRT01P":"Placebo","TRT01PN":null,"TRT01A":"Placebo","SITEGR1":900,"SITEID":701,"TRTSDT":"2012-08-05","TRTEDT":"2012-09-01","ITTFL":"Y","SAFFL":"Y","EFFFL":"N","COMPLFL":"N"},{"STUDYID":"CDISCPILOT01","USUBJID":"01-701-1023","PARAMCD":"DIABPST","PARAM":"Diastolic Blood Pressure, Standing","ATPT":"STANDING","AVAL":88,"AVALU":"mmHg","SRCVISIT":"AMBUL ECG PLACEMENT","ADT":"2012-08-26","DY":22,"ADY":22,"AVISIT":"Week 2","AVISITN":2,"ATARGDY":15,"BASE":86,"ABLFL":null,"CHG":2,"PCHG":2.3256,"ANL01FL":"Y","DTYPE":null,"ANL02FL":"Y","TRTP":"Placebo","TRT01P":"Placebo","TRT01PN":null,"TRT01A":"Placebo","SITEGR1":900,"SITEID":701,"TRTSDT":"2012-08-05","TRTEDT":"2012-09-01","ITTFL":"Y","SAFFL":"Y","EFFFL":"N","COMPLFL":"N"},{"STUDYID":"CDISCPILOT01","USUBJID":"01-701-1023","PARAMCD":"DIABPST","PARAM":"Diastolic Blood Pressure, Standing","ATPT":"STANDING","AVAL":89,"AVALU":"mmHg","SRCVISIT":"AMBUL ECG PLACEMENT","ADT":"2012-08-26","DY":22,"ADY":22,"AVISIT":"Week 2","AVISITN":2,"ATARGDY":15,"BASE":86,"ABLFL":null,"CHG":3,"PCHG":3.4884,"ANL01FL":null,"DTYPE":null,"ANL02FL":null,"TRTP":"Placebo","TRT01P":"Placebo","TRT01PN":null,"TRT01A":"Placebo","SITEGR1":900,"SITEID":701,"TRTSDT":"2012-08-05","TRTEDT":"2012-09-01","ITTFL":"Y","SAFFL":"Y","EFFFL":"N","COMPLFL":"N"},{"STUDYID":"CDISCPILOT01","USUBJID":"01-701-1023","PARAMCD":"DIABPSU","PARAM":"Diastolic Blood Pressure, Supine","ATPT":"SUPINE","AVAL":88,"AVALU":"mmHg","SRCVISIT":"WEEK 2","ADT":"2012-08-27","DY":23,"ADY":23,"AVISIT":"Week 4","AVISITN":4,"ATARGDY":29,"BASE":84,"ABLFL":null,"CHG":4,"PCHG":4.7619,"ANL01FL":null,"DTYPE":null,"ANL02FL":null,"TRTP":"Placebo","TRT01P":"Placebo","TRT01PN":null,"TRT01A":"Placebo","SITEGR1":900,"SITEID":701,"TRTSDT":"2012-08-05","TRTEDT":"2012-09-01","ITTFL":"Y","SAFFL":"Y","EFFFL":"N","COMPLFL":"N"},{"STUDYID":"CDISCPILOT01","USUBJID":"01-701-1023","PARAMCD":"DIABPST","PARAM":"Diastolic Blood Pressure, Standing","ATPT":"STANDING","AVAL":86,"AVALU":"mmHg","SRCVISIT":"WEEK 2","ADT":"2012-08-27","DY":23,"ADY":23,"AVISIT":"Week 4","AVISITN":4,"ATARGDY":29,"BASE":86,"ABLFL":null,"CHG":0,"PCHG":0,"ANL01FL":null,"DTYPE":null,"ANL02FL":null,"TRTP":"Placebo","TRT01P":"Placebo","TRT01PN":null,"TRT01A":"Placebo","SITEGR1":900,"SITEID":701,"TRTSDT":"2012-08-05","TRTEDT":"2012-09-01","ITTFL":"Y","SAFFL":"Y","EFFFL":"N","COMPLFL":"N"},{"STUDYID":"CDISCPILOT01","USUBJID":"01-701-1023","PARAMCD":"DIABPST","PARAM":"Diastolic Blood Pressure, Standing","ATPT":"STANDING","AVAL":90,"AVALU":"mmHg","SRCVISIT":"WEEK 2","ADT":"2012-08-27","DY":23,"ADY":23,"AVISIT":"Week 4","AVISITN":4,"ATARGDY":29,"BASE":86,"ABLFL":null,"CHG":4,"PCHG":4.6512,"ANL01FL":null,"DTYPE":null,"ANL02FL":null,"TRTP":"Placebo","TRT01P":"Placebo","TRT01PN":null,"TRT01A":"Placebo","SITEGR1":900,"SITEID":701,"TRTSDT":"2012-08-05","TRTEDT":"2012-09-01","ITTFL":"Y","SAFFL":"Y","EFFFL":"N","COMPLFL":"N"},{"STUDYID":"CDISCPILOT01","USUBJID":"01-701-1023","PARAMCD":"DIABPSU","PARAM":"Diastolic Blood Pressure, Supine","ATPT":"SUPINE","AVAL":86,"AVALU":"mmHg","SRCVISIT":"WEEK 4","ADT":"2012-09-02","DY":29,"ADY":29,"AVISIT":"Week 4","AVISITN":4,"ATARGDY":29,"BASE":84,"ABLFL":null,"CHG":2,"PCHG":2.381,"ANL01FL":"Y","DTYPE":null,"ANL02FL":"Y","TRTP":"Placebo","TRT01P":"Placebo","TRT01PN":null,"TRT01A":"Placebo","SITEGR1":900,"SITEID":701,"TRTSDT":"2012-08-05","TRTEDT":"2012-09-01","ITTFL":"Y","SAFFL":"Y","EFFFL":"N","COMPLFL":"N"},{"STUDYID":"CDISCPILOT01","USUBJID":"01-701-1023","PARAMCD":"DIABPST","PARAM":"Diastolic Blood Pressure, Standing","ATPT":"STANDING","AVAL":88,"AVALU":"mmHg","SRCVISIT":"WEEK 4","ADT":"2012-09-02","DY":29,"ADY":29,"AVISIT":"Week 4","AVISITN":4,"ATARGDY":29,"BASE":86,"ABLFL":null,"CHG":2,"PCHG":2.3256,"ANL01FL":"Y","DTYPE":null,"ANL02FL":"Y","TRTP":"Placebo","TRT01P":"Placebo","TRT01PN":null,"TRT01A":"Placebo","SITEGR1":900,"SITEID":701,"TRTSDT":"2012-08-05","TRTEDT":"2012-09-01","ITTFL":"Y","SAFFL":"Y","EFFFL":"N","COMPLFL":"N"},{"STUDYID":"CDISCPILOT01","USUBJID":"01-701-1023","PARAMCD":"DIABPST","PARAM":"Diastolic Blood Pressure, Standing","ATPT":"STANDING","AVAL":92,"AVALU":"mmHg","SRCVISIT":"WEEK 4","ADT":"2012-09-02","DY":29,"ADY":29,"AVISIT":"Week 4","AVISITN":4,"ATARGDY":29,"BASE":86,"ABLFL":null,"CHG":6,"PCHG":6.9767,"ANL01FL":null,"DTYPE":null,"ANL02FL":null,"TRTP":"Placebo","TRT01P":"Placebo","TRT01PN":null,"TRT01A":"Placebo","SITEGR1":900,"SITEID":701,"TRTSDT":"2012-08-05","TRTEDT":"2012-09-01","ITTFL":"Y","SAFFL":"Y","EFFFL":"N","COMPLFL":"N"},{"STUDYID":"CDISCPILOT01","USUBJID":"01-701-1023","PARAMCD":"DIABPSU","PARAM":"Diastolic Blood Pressure, Supine","ATPT":"SUPINE","AVAL":89,"AVALU":"mmHg","SRCVISIT":"RETRIEVAL","ADT":"2013-02-18","DY":198,"ADY":198,"AVISIT":"Week 26","AVISITN":26,"ATARGDY":183,"BASE":84,"ABLFL":null,"CHG":5,"PCHG":5.9524,"ANL01FL":"Y","DTYPE":null,"ANL02FL":"Y","TRTP":"Placebo","TRT01P":"Placebo","TRT01PN":null,"TRT01A":"Placebo","SITEGR1":900,"SITEID":701,"TRTSDT":"2012-08-05","TRTEDT":"2012-09-01","ITTFL":"Y","SAFFL":"Y","EFFFL":"N","COMPLFL":"N"},{"STUDYID":"CDISCPILOT01","USUBJID":"01-701-1023","PARAMCD":"DIABPST","PARAM":"Diastolic Blood Pressure, Standing","ATPT":"STANDING","AVAL":86,"AVALU":"mmHg","SRCVISIT":"RETRIEVAL","ADT":"2013-02-18","DY":198,"ADY":198,"AVISIT":"Week 26","AVISITN":26,"ATARGDY":183,"BASE":86,"ABLFL":null,"CHG":0,"PCHG":0,"ANL01FL":"Y","DTYPE":null,"ANL02FL":"Y","TRTP":"Placebo","TRT01P":"Placebo","TRT01PN":null,"TRT01A":"Placebo","SITEGR1":900,"SITEID":701,"TRTSDT":"2012-08-05","TRTEDT":"2012-09-01","ITTFL":"Y","SAFFL":"Y","EFFFL":"N","COMPLFL":"N"},{"STUDYID":"CDISCPILOT01","USUBJID":"01-701-1023","PARAMCD":"DIABPST","PARAM":"Diastolic Blood Pressure, Standing","ATPT":"STANDING","AVAL":84,"AVALU":"mmHg","SRCVISIT":"RETRIEVAL","ADT":"2013-02-18","DY":198,"ADY":198,"AVISIT":"Week 26","AVISITN":26,"ATARGDY":183,"BASE":86,"ABLFL":null,"CHG":-2,"PCHG":-2.3256,"ANL01FL":null,"DTYPE":null,"ANL02FL":null,"TRTP":"Placebo","TRT01P":"Placebo","TRT01PN":null,"TRT01A":"Placebo","SITEGR1":900,"SITEID":701,"TRTSDT":"2012-08-05","TRTEDT":"2012-09-01","ITTFL":"Y","SAFFL":"Y","EFFFL":"N","COMPLFL":"N"},{"STUDYID":"CDISCPILOT01","USUBJID":"01-701-1023","PARAMCD":"HEIGHT","PARAM":"Height","ATPT":null,"AVAL":162.56,"AVALU":"cm","SRCVISIT":"SCREENING 1","ADT":"2012-07-22","DY":-14,"ADY":-14,"AVISIT":"Baseline","AVISITN":0,"ATARGDY":1,"BASE":162.56,"ABLFL":"Y","CHG":null,"PCHG":null,"ANL01FL":"Y","DTYPE":null,"ANL02FL":"Y","TRTP":"Placebo","TRT01P":"Placebo","TRT01PN":null,"TRT01A":"Placebo","SITEGR1":900,"SITEID":701,"TRTSDT":"2012-08-05","TRTEDT":"2012-09-01","ITTFL":"Y","SAFFL":"Y","EFFFL":"N","COMPLFL":"N"},{"STUDYID":"CDISCPILOT01","USUBJID":"01-701-1023","PARAMCD":"PULSESU","PARAM":"Pulse Rate, Supine","ATPT":"SUPINE","AVAL":65,"AVALU":"BEATS/MIN","SRCVISIT":"SCREENING 1","ADT":"2012-07-22","DY":-14,"ADY":-14,"AVISIT":"Baseline","AVISITN":0,"ATARGDY":1,"BASE":68,"ABLFL":null,"CHG":null,"PCHG":null,"ANL01FL":null,"DTYPE":null,"ANL02FL":null,"TRTP":"Placebo","TRT01P":"Placebo","TRT01PN":null,"TRT01A":"Placebo","SITEGR1":900,"SITEID":701,"TRTSDT":"2012-08-05","TRTEDT":"2012-09-01","ITTFL":"Y","SAFFL":"Y","EFFFL":"N","COMPLFL":"N"},{"STUDYID":"CDISCPILOT01","USUBJID":"01-701-1023","PARAMCD":"PULSEST","PARAM":"Pulse Rate, Standing","ATPT":"STANDING","AVAL":78,"AVALU":"BEATS/MIN","SRCVISIT":"SCREENING 1","ADT":"2012-07-22","DY":-14,"ADY":-14,"AVISIT":"Baseline","AVISITN":0,"ATARGDY":1,"BASE":80,"ABLFL":null,"CHG":null,"PCHG":null,"ANL01FL":null,"DTYPE":null,"ANL02FL":null,"TRTP":"Placebo","TRT01P":"Placebo","TRT01PN":null,"TRT01A":"Placebo","SITEGR1":900,"SITEID":701,"TRTSDT":"2012-08-05","TRTEDT":"2012-09-01","ITTFL":"Y","SAFFL":"Y","EFFFL":"N","COMPLFL":"N"},{"STUDYID":"CDISCPILOT01","USUBJID":"01-701-1023","PARAMCD":"PULSEST","PARAM":"Pulse Rate, Standing","ATPT":"STANDING","AVAL":74,"AVALU":"BEATS/MIN","SRCVISIT":"SCREENING 1","ADT":"2012-07-22","DY":-14,"ADY":-14,"AVISIT":"Baseline","AVISITN":0,"ATARGDY":1,"BASE":80,"ABLFL":null,"CHG":null,"PCHG":null,"ANL01FL":null,"DTYPE":null,"ANL02FL":null,"TRTP":"Placebo","TRT01P":"Placebo","TRT01PN":null,"TRT01A":"Placebo","SITEGR1":900,"SITEID":701,"TRTSDT":"2012-08-05","TRTEDT":"2012-09-01","ITTFL":"Y","SAFFL":"Y","EFFFL":"N","COMPLFL":"N"},{"STUDYID":"CDISCPILOT01","USUBJID":"01-701-1023","PARAMCD":"PULSESU","PARAM":"Pulse Rate, Supine","ATPT":"SUPINE","AVAL":79,"AVALU":"BEATS/MIN","SRCVISIT":"SCREENING 2","ADT":"2012-08-03","DY":-2,"ADY":-2,"AVISIT":"Baseline","AVISITN":0,"ATARGDY":1,"BASE":68,"ABLFL":null,"CHG":null,"PCHG":null,"ANL01FL":null,"DTYPE":null,"ANL02FL":null,"TRTP":"Placebo","TRT01P":"Placebo","TRT01PN":null,"TRT01A":"Placebo","SITEGR1":900,"SITEID":701,"TRTSDT":"2012-08-05","TRTEDT":"2012-09-01","ITTFL":"Y","SAFFL":"Y","EFFFL":"N","COMPLFL":"N"},{"STUDYID":"CDISCPILOT01","USUBJID":"01-701-1023","PARAMCD":"PULSEST","PARAM":"Pulse Rate, Standing","ATPT":"STANDING","AVAL":91,"AVALU":"BEATS/MIN","SRCVISIT":"SCREENING 2","ADT":"2012-08-03","DY":-2,"ADY":-2,"AVISIT":"Baseline","AVISITN":0,"ATARGDY":1,"BASE":80,"ABLFL":null,"CHG":null,"PCHG":null,"ANL01FL":null,"DTYPE":null,"ANL02FL":null,"TRTP":"Placebo","TRT01P":"Placebo","TRT01PN":null,"TRT01A":"Placebo","SITEGR1":900,"SITEID":701,"TRTSDT":"2012-08-05","TRTEDT":"2012-09-01","ITTFL":"Y","SAFFL":"Y","EFFFL":"N","COMPLFL":"N"},{"STUDYID":"CDISCPILOT01","USUBJID":"01-701-1023","PARAMCD":"PULSEST","PARAM":"Pulse Rate, Standing","ATPT":"STANDING","AVAL":92,"AVALU":"BEATS/MIN","SRCVISIT":"SCREENING 2","ADT":"2012-08-03","DY":-2,"ADY":-2,"AVISIT":"Baseline","AVISITN":0,"ATARGDY":1,"BASE":80,"ABLFL":null,"CHG":null,"PCHG":null,"ANL01FL":null,"DTYPE":null,"ANL02FL":null,"TRTP":"Placebo","TRT01P":"Placebo","TRT01PN":null,"TRT01A":"Placebo","SITEGR1":900,"SITEID":701,"TRTSDT":"2012-08-05","TRTEDT":"2012-09-01","ITTFL":"Y","SAFFL":"Y","EFFFL":"N","COMPLFL":"N"},{"STUDYID":"CDISCPILOT01","USUBJID":"01-701-1023","PARAMCD":"PULSESU","PARAM":"Pulse Rate, Supine","ATPT":"SUPINE","AVAL":68,"AVALU":"BEATS/MIN","SRCVISIT":"BASELINE","ADT":"2012-08-05","DY":1,"ADY":1,"AVISIT":"Baseline","AVISITN":0,"ATARGDY":1,"BASE":68,"ABLFL":"Y","CHG":null,"PCHG":null,"ANL01FL":"Y","DTYPE":null,"ANL02FL":"Y","TRTP":"Placebo","TRT01P":"Placebo","TRT01PN":null,"TRT01A":"Placebo","SITEGR1":900,"SITEID":701,"TRTSDT":"2012-08-05","TRTEDT":"2012-09-01","ITTFL":"Y","SAFFL":"Y","EFFFL":"N","COMPLFL":"N"},{"STUDYID":"CDISCPILOT01","USUBJID":"01-701-1023","PARAMCD":"PULSEST","PARAM":"Pulse Rate, Standing","ATPT":"STANDING","AVAL":80,"AVALU":"BEATS/MIN","SRCVISIT":"BASELINE","ADT":"2012-08-05","DY":1,"ADY":1,"AVISIT":"Baseline","AVISITN":0,"ATARGDY":1,"BASE":80,"ABLFL":"Y","CHG":null,"PCHG":null,"ANL01FL":"Y","DTYPE":null,"ANL02FL":"Y","TRTP":"Placebo","TRT01P":"Placebo","TRT01PN":null,"TRT01A":"Placebo","SITEGR1":900,"SITEID":701,"TRTSDT":"2012-08-05","TRTEDT":"2012-09-01","ITTFL":"Y","SAFFL":"Y","EFFFL":"N","COMPLFL":"N"},{"STUDYID":"CDISCPILOT01","USUBJID":"01-701-1023","PARAMCD":"PULSEST","PARAM":"Pulse Rate, Standing","ATPT":"STANDING","AVAL":76,"AVALU":"BEATS/MIN","SRCVISIT":"BASELINE","ADT":"2012-08-05","DY":1,"ADY":1,"AVISIT":"Baseline","AVISITN":0,"ATARGDY":1,"BASE":80,"ABLFL":"Y","CHG":null,"PCHG":null,"ANL01FL":null,"DTYPE":null,"ANL02FL":null,"TRTP":"Placebo","TRT01P":"Placebo","TRT01PN":null,"TRT01A":"Placebo","SITEGR1":900,"SITEID":701,"TRTSDT":"2012-08-05","TRTEDT":"2012-09-01","ITTFL":"Y","SAFFL":"Y","EFFFL":"N","COMPLFL":"N"},{"STUDYID":"CDISCPILOT01","USUBJID":"01-701-1023","PARAMCD":"PULSESU","PARAM":"Pulse Rate, Supine","ATPT":"SUPINE","AVAL":71,"AVALU":"BEATS/MIN","SRCVISIT":"AMBUL ECG PLACEMENT","ADT":"2012-08-26","DY":22,"ADY":22,"AVISIT":"Week 2","AVISITN":2,"ATARGDY":15,"BASE":68,"ABLFL":null,"CHG":3,"PCHG":4.4118,"ANL01FL":"Y","DTYPE":null,"ANL02FL":"Y","TRTP":"Placebo","TRT01P":"Placebo","TRT01PN":null,"TRT01A":"Placebo","SITEGR1":900,"SITEID":701,"TRTSDT":"2012-08-05","TRTEDT":"2012-09-01","ITTFL":"Y","SAFFL":"Y","EFFFL":"N","COMPLFL":"N"},{"STUDYID":"CDISCPILOT01","USUBJID":"01-701-1023","PARAMCD":"PULSEST","PARAM":"Pulse Rate, Standing","ATPT":"STANDING","AVAL":79,"AVALU":"BEATS/MIN","SRCVISIT":"AMBUL ECG PLACEMENT","ADT":"2012-08-26","DY":22,"ADY":22,"AVISIT":"Week 2","AVISITN":2,"ATARGDY":15,"BASE":80,"ABLFL":null,"CHG":-1,"PCHG":-1.25,"ANL01FL":"Y","DTYPE":null,"ANL02FL":"Y","TRTP":"Placebo","TRT01P":"Placebo","TRT01PN":null,"TRT01A":"Placebo","SITEGR1":900,"SITEID":701,"TRTSDT":"2012-08-05","TRTEDT":"2012-09-01","ITTFL":"Y","SAFFL":"Y","EFFFL":"N","COMPLFL":"N"},{"STUDYID":"CDISCPILOT01","USUBJID":"01-701-1023","PARAMCD":"PULSEST","PARAM":"Pulse Rate, Standing","ATPT":"STANDING","AVAL":77,"AVALU":"BEATS/MIN","SRCVISIT":"AMBUL ECG PLACEMENT","ADT":"2012-08-26","DY":22,"ADY":22,"AVISIT":"Week 2","AVISITN":2,"ATARGDY":15,"BASE":80,"ABLFL":null,"CHG":-3,"PCHG":-3.75,"ANL01FL":null,"DTYPE":null,"ANL02FL":null,"TRTP":"Placebo","TRT01P":"Placebo","TRT01PN":null,"TRT01A":"Placebo","SITEGR1":900,"SITEID":701,"TRTSDT":"2012-08-05","TRTEDT":"2012-09-01","ITTFL":"Y","SAFFL":"Y","EFFFL":"N","COMPLFL":"N"},{"STUDYID":"CDISCPILOT01","USUBJID":"01-701-1023","PARAMCD":"PULSESU","PARAM":"Pulse Rate, Supine","ATPT":"SUPINE","AVAL":84,"AVALU":"BEATS/MIN","SRCVISIT":"WEEK 2","ADT":"2012-08-27","DY":23,"ADY":23,"AVISIT":"Week 4","AVISITN":4,"ATARGDY":29,"BASE":68,"ABLFL":null,"CHG":16,"PCHG":23.5294,"ANL01FL":null,"DTYPE":null,"ANL02FL":null,"TRTP":"Placebo","TRT01P":"Placebo","TRT01PN":null,"TRT01A":"Placebo","SITEGR1":900,"SITEID":701,"TRTSDT":"2012-08-05","TRTEDT":"2012-09-01","ITTFL":"Y","SAFFL":"Y","EFFFL":"N","COMPLFL":"N"},{"STUDYID":"CDISCPILOT01","USUBJID":"01-701-1023","PARAMCD":"PULSEST","PARAM":"Pulse Rate, Standing","ATPT":"STANDING","AVAL":92,"AVALU":"BEATS/MIN","SRCVISIT":"WEEK 2","ADT":"2012-08-27","DY":23,"ADY":23,"AVISIT":"Week 4","AVISITN":4,"ATARGDY":29,"BASE":80,"ABLFL":null,"CHG":12,"PCHG":15,"ANL01FL":null,"DTYPE":null,"ANL02FL":null,"TRTP":"Placebo","TRT01P":"Placebo","TRT01PN":null,"TRT01A":"Placebo","SITEGR1":900,"SITEID":701,"TRTSDT":"2012-08-05","TRTEDT":"2012-09-01","ITTFL":"Y","SAFFL":"Y","EFFFL":"N","COMPLFL":"N"},{"STUDYID":"CDISCPILOT01","USUBJID":"01-701-1023","PARAMCD":"PULSEST","PARAM":"Pulse Rate, Standing","ATPT":"STANDING","AVAL":94,"AVALU":"BEATS/MIN","SRCVISIT":"WEEK 2","ADT":"2012-08-27","DY":23,"ADY":23,"AVISIT":"Week 4","AVISITN":4,"ATARGDY":29,"BASE":80,"ABLFL":null,"CHG":14,"PCHG":17.5,"ANL01FL":null,"DTYPE":null,"ANL02FL":null,"TRTP":"Placebo","TRT01P":"Placebo","TRT01PN":null,"TRT01A":"Placebo","SITEGR1":900,"SITEID":701,"TRTSDT":"2012-08-05","TRTEDT":"2012-09-01","ITTFL":"Y","SAFFL":"Y","EFFFL":"N","COMPLFL":"N"},{"STUDYID":"CDISCPILOT01","USUBJID":"01-701-1023","PARAMCD":"PULSESU","PARAM":"Pulse Rate, Supine","ATPT":"SUPINE","AVAL":64,"AVALU":"BEATS/MIN","SRCVISIT":"WEEK 4","ADT":"2012-09-02","DY":29,"ADY":29,"AVISIT":"Week 4","AVISITN":4,"ATARGDY":29,"BASE":68,"ABLFL":null,"CHG":-4,"PCHG":-5.8824,"ANL01FL":"Y","DTYPE":null,"ANL02FL":"Y","TRTP":"Placebo","TRT01P":"Placebo","TRT01PN":null,"TRT01A":"Placebo","SITEGR1":900,"SITEID":701,"TRTSDT":"2012-08-05","TRTEDT":"2012-09-01","ITTFL":"Y","SAFFL":"Y","EFFFL":"N","COMPLFL":"N"},{"STUDYID":"CDISCPILOT01","USUBJID":"01-701-1023","PARAMCD":"PULSEST","PARAM":"Pulse Rate, Standing","ATPT":"STANDING","AVAL":76,"AVALU":"BEATS/MIN","SRCVISIT":"WEEK 4","ADT":"2012-09-02","DY":29,"ADY":29,"AVISIT":"Week 4","AVISITN":4,"ATARGDY":29,"BASE":80,"ABLFL":null,"CHG":-4,"PCHG":-5,"ANL01FL":"Y","DTYPE":null,"ANL02FL":"Y","TRTP":"Placebo","TRT01P":"Placebo","TRT01PN":null,"TRT01A":"Placebo","SITEGR1":900,"SITEID":701,"TRTSDT":"2012-08-05","TRTEDT":"2012-09-01","ITTFL":"Y","SAFFL":"Y","EFFFL":"N","COMPLFL":"N"},{"STUDYID":"CDISCPILOT01","USUBJID":"01-701-1023","PARAMCD":"PULSEST","PARAM":"Pulse Rate, Standing","ATPT":"STANDING","AVAL":70,"AVALU":"BEATS/MIN","SRCVISIT":"WEEK 4","ADT":"2012-09-02","DY":29,"ADY":29,"AVISIT":"Week 4","AVISITN":4,"ATARGDY":29,"BASE":80,"ABLFL":null,"CHG":-10,"PCHG":-12.5,"ANL01FL":null,"DTYPE":null,"ANL02FL":null,"TRTP":"Placebo","TRT01P":"Placebo","TRT01PN":null,"TRT01A":"Placebo","SITEGR1":900,"SITEID":701,"TRTSDT":"2012-08-05","TRTEDT":"2012-09-01","ITTFL":"Y","SAFFL":"Y","EFFFL":"N","COMPLFL":"N"},{"STUDYID":"CDISCPILOT01","USUBJID":"01-701-1023","PARAMCD":"PULSESU","PARAM":"Pulse Rate, Supine","ATPT":"SUPINE","AVAL":72,"AVALU":"BEATS/MIN","SRCVISIT":"RETRIEVAL","ADT":"2013-02-18","DY":198,"ADY":198,"AVISIT":"Week 26","AVISITN":26,"ATARGDY":183,"BASE":68,"ABLFL":null,"CHG":4,"PCHG":5.8824,"ANL01FL":"Y","DTYPE":null,"ANL02FL":"Y","TRTP":"Placebo","TRT01P":"Placebo","TRT01PN":null,"TRT01A":"Placebo","SITEGR1":900,"SITEID":701,"TRTSDT":"2012-08-05","TRTEDT":"2012-09-01","ITTFL":"Y","SAFFL":"Y","EFFFL":"N","COMPLFL":"N"},{"STUDYID":"CDISCPILOT01","USUBJID":"01-701-1023","PARAMCD":"PULSEST","PARAM":"Pulse Rate, Standing","ATPT":"STANDING","AVAL":84,"AVALU":"BEATS/MIN","SRCVISIT":"RETRIEVAL","ADT":"2013-02-18","DY":198,"ADY":198,"AVISIT":"Week 26","AVISITN":26,"ATARGDY":183,"BASE":80,"ABLFL":null,"CHG":4,"PCHG":5,"ANL01FL":"Y","DTYPE":null,"ANL02FL":"Y","TRTP":"Placebo","TRT01P":"Placebo","TRT01PN":null,"TRT01A":"Placebo","SITEGR1":900,"SITEID":701,"TRTSDT":"2012-08-05","TRTEDT":"2012-09-01","ITTFL":"Y","SAFFL":"Y","EFFFL":"N","COMPLFL":"N"},{"STUDYID":"CDISCPILOT01","USUBJID":"01-701-1023","PARAMCD":"PULSEST","PARAM":"Pulse Rate, Standing","ATPT":"STANDING","AVAL":76,"AVALU":"BEATS/MIN","SRCVISIT":"RETRIEVAL","ADT":"2013-02-18","DY":198,"ADY":198,"AVISIT":"Week 26","AVISITN":26,"ATARGDY":183,"BASE":80,"ABLFL":null,"CHG":-4,"PCHG":-5,"ANL01FL":null,"DTYPE":null,"ANL02FL":null,"TRTP":"Placebo","TRT01P":"Placebo","TRT01PN":null,"TRT01A":"Placebo","SITEGR1":900,"SITEID":701,"TRTSDT":"2012-08-05","TRTEDT":"2012-09-01","ITTFL":"Y","SAFFL":"Y","EFFFL":"N","COMPLFL":"N"},{"STUDYID":"CDISCPILOT01","USUBJID":"01-701-1023","PARAMCD":"SYSBPSU","PARAM":"Systolic Blood Pressure, Supine","ATPT":"SUPINE","AVAL":130,"AVALU":"mmHg","SRCVISIT":"SCREENING 1","ADT":"2012-07-22","DY":-14,"ADY":-14,"AVISIT":"Baseline","AVISITN":0,"ATARGDY":1,"BASE":130,"ABLFL":null,"CHG":null,"PCHG":null,"ANL01FL":null,"DTYPE":null,"ANL02FL":null,"TRTP":"Placebo","TRT01P":"Placebo","TRT01PN":null,"TRT01A":"Placebo","SITEGR1":900,"SITEID":701,"TRTSDT":"2012-08-05","TRTEDT":"2012-09-01","ITTFL":"Y","SAFFL":"Y","EFFFL":"N","COMPLFL":"N"},{"STUDYID":"CDISCPILOT01","USUBJID":"01-701-1023","PARAMCD":"SYSBPST","PARAM":"Systolic Blood Pressure, Standing","ATPT":"STANDING","AVAL":132,"AVALU":"mmHg","SRCVISIT":"SCREENING 1","ADT":"2012-07-22","DY":-14,"ADY":-14,"AVISIT":"Baseline","AVISITN":0,"ATARGDY":1,"BASE":132,"ABLFL":null,"CHG":null,"PCHG":null,"ANL01FL":null,"DTYPE":null,"ANL02FL":null,"TRTP":"Placebo","TRT01P":"Placebo","TRT01PN":null,"TRT01A":"Placebo","SITEGR1":900,"SITEID":701,"TRTSDT":"2012-08-05","TRTEDT":"2012-09-01","ITTFL":"Y","SAFFL":"Y","EFFFL":"N","COMPLFL":"N"},{"STUDYID":"CDISCPILOT01","USUBJID":"01-701-1023","PARAMCD":"SYSBPST","PARAM":"Systolic Blood Pressure, Standing","ATPT":"STANDING","AVAL":140,"AVALU":"mmHg","SRCVISIT":"SCREENING 1","ADT":"2012-07-22","DY":-14,"ADY":-14,"AVISIT":"Baseline","AVISITN":0,"ATARGDY":1,"BASE":132,"ABLFL":null,"CHG":null,"PCHG":null,"ANL01FL":null,"DTYPE":null,"ANL02FL":null,"TRTP":"Placebo","TRT01P":"Placebo","TRT01PN":null,"TRT01A":"Placebo","SITEGR1":900,"SITEID":701,"TRTSDT":"2012-08-05","TRTEDT":"2012-09-01","ITTFL":"Y","SAFFL":"Y","EFFFL":"N","COMPLFL":"N"},{"STUDYID":"CDISCPILOT01","USUBJID":"01-701-1023","PARAMCD":"SYSBPSU","PARAM":"Systolic Blood Pressure, Supine","ATPT":"SUPINE","AVAL":131,"AVALU":"mmHg","SRCVISIT":"SCREENING 2","ADT":"2012-08-03","DY":-2,"ADY":-2,"AVISIT":"Baseline","AVISITN":0,"ATARGDY":1,"BASE":130,"ABLFL":null,"CHG":null,"PCHG":null,"ANL01FL":null,"DTYPE":null,"ANL02FL":null,"TRTP":"Placebo","TRT01P":"Placebo","TRT01PN":null,"TRT01A":"Placebo","SITEGR1":900,"SITEID":701,"TRTSDT":"2012-08-05","TRTEDT":"2012-09-01","ITTFL":"Y","SAFFL":"Y","EFFFL":"N","COMPLFL":"N"},{"STUDYID":"CDISCPILOT01","USUBJID":"01-701-1023","PARAMCD":"SYSBPST","PARAM":"Systolic Blood Pressure, Standing","ATPT":"STANDING","AVAL":129,"AVALU":"mmHg","SRCVISIT":"SCREENING 2","ADT":"2012-08-03","DY":-2,"ADY":-2,"AVISIT":"Baseline","AVISITN":0,"ATARGDY":1,"BASE":132,"ABLFL":null,"CHG":null,"PCHG":null,"ANL01FL":null,"DTYPE":null,"ANL02FL":null,"TRTP":"Placebo","TRT01P":"Placebo","TRT01PN":null,"TRT01A":"Placebo","SITEGR1":900,"SITEID":701,"TRTSDT":"2012-08-05","TRTEDT":"2012-09-01","ITTFL":"Y","SAFFL":"Y","EFFFL":"N","COMPLFL":"N"},{"STUDYID":"CDISCPILOT01","USUBJID":"01-701-1023","PARAMCD":"SYSBPST","PARAM":"Systolic Blood Pressure, Standing","ATPT":"STANDING","AVAL":138,"AVALU":"mmHg","SRCVISIT":"SCREENING 2","ADT":"2012-08-03","DY":-2,"ADY":-2,"AVISIT":"Baseline","AVISITN":0,"ATARGDY":1,"BASE":132,"ABLFL":null,"CHG":null,"PCHG":null,"ANL01FL":null,"DTYPE":null,"ANL02FL":null,"TRTP":"Placebo","TRT01P":"Placebo","TRT01PN":null,"TRT01A":"Placebo","SITEGR1":900,"SITEID":701,"TRTSDT":"2012-08-05","TRTEDT":"2012-09-01","ITTFL":"Y","SAFFL":"Y","EFFFL":"N","COMPLFL":"N"},{"STUDYID":"CDISCPILOT01","USUBJID":"01-701-1023","PARAMCD":"SYSBPSU","PARAM":"Systolic Blood Pressure, Supine","ATPT":"SUPINE","AVAL":130,"AVALU":"mmHg","SRCVISIT":"BASELINE","ADT":"2012-08-05","DY":1,"ADY":1,"AVISIT":"Baseline","AVISITN":0,"ATARGDY":1,"BASE":130,"ABLFL":"Y","CHG":null,"PCHG":null,"ANL01FL":"Y","DTYPE":null,"ANL02FL":"Y","TRTP":"Placebo","TRT01P":"Placebo","TRT01PN":null,"TRT01A":"Placebo","SITEGR1":900,"SITEID":701,"TRTSDT":"2012-08-05","TRTEDT":"2012-09-01","ITTFL":"Y","SAFFL":"Y","EFFFL":"N","COMPLFL":"N"},{"STUDYID":"CDISCPILOT01","USUBJID":"01-701-1023","PARAMCD":"SYSBPST","PARAM":"Systolic Blood Pressure, Standing","ATPT":"STANDING","AVAL":132,"AVALU":"mmHg","SRCVISIT":"BASELINE","ADT":"2012-08-05","DY":1,"ADY":1,"AVISIT":"Baseline","AVISITN":0,"ATARGDY":1,"BASE":132,"ABLFL":"Y","CHG":null,"PCHG":null,"ANL01FL":"Y","DTYPE":null,"ANL02FL":"Y","TRTP":"Placebo","TRT01P":"Placebo","TRT01PN":null,"TRT01A":"Placebo","SITEGR1":900,"SITEID":701,"TRTSDT":"2012-08-05","TRTEDT":"2012-09-01","ITTFL":"Y","SAFFL":"Y","EFFFL":"N","COMPLFL":"N"},{"STUDYID":"CDISCPILOT01","USUBJID":"01-701-1023","PARAMCD":"SYSBPST","PARAM":"Systolic Blood Pressure, Standing","ATPT":"STANDING","AVAL":132,"AVALU":"mmHg","SRCVISIT":"BASELINE","ADT":"2012-08-05","DY":1,"ADY":1,"AVISIT":"Baseline","AVISITN":0,"ATARGDY":1,"BASE":132,"ABLFL":"Y","CHG":null,"PCHG":null,"ANL01FL":null,"DTYPE":null,"ANL02FL":null,"TRTP":"Placebo","TRT01P":"Placebo","TRT01PN":null,"TRT01A":"Placebo","SITEGR1":900,"SITEID":701,"TRTSDT":"2012-08-05","TRTEDT":"2012-09-01","ITTFL":"Y","SAFFL":"Y","EFFFL":"N","COMPLFL":"N"},{"STUDYID":"CDISCPILOT01","USUBJID":"01-701-1023","PARAMCD":"SYSBPSU","PARAM":"Systolic Blood Pressure, Supine","ATPT":"SUPINE","AVAL":133,"AVALU":"mmHg","SRCVISIT":"AMBUL ECG PLACEMENT","ADT":"2012-08-26","DY":22,"ADY":22,"AVISIT":"Week 2","AVISITN":2,"ATARGDY":15,"BASE":130,"ABLFL":null,"CHG":3,"PCHG":2.3077,"ANL01FL":"Y","DTYPE":null,"ANL02FL":"Y","TRTP":"Placebo","TRT01P":"Placebo","TRT01PN":null,"TRT01A":"Placebo","SITEGR1":900,"SITEID":701,"TRTSDT":"2012-08-05","TRTEDT":"2012-09-01","ITTFL":"Y","SAFFL":"Y","EFFFL":"N","COMPLFL":"N"},{"STUDYID":"CDISCPILOT01","USUBJID":"01-701-1023","PARAMCD":"SYSBPST","PARAM":"Systolic Blood Pressure, Standing","ATPT":"STANDING","AVAL":130,"AVALU":"mmHg","SRCVISIT":"AMBUL ECG PLACEMENT","ADT":"2012-08-26","DY":22,"ADY":22,"AVISIT":"Week 2","AVISITN":2,"ATARGDY":15,"BASE":132,"ABLFL":null,"CHG":-2,"PCHG":-1.5152,"ANL01FL":"Y","DTYPE":null,"ANL02FL":"Y","TRTP":"Placebo","TRT01P":"Placebo","TRT01PN":null,"TRT01A":"Placebo","SITEGR1":900,"SITEID":701,"TRTSDT":"2012-08-05","TRTEDT":"2012-09-01","ITTFL":"Y","SAFFL":"Y","EFFFL":"N","COMPLFL":"N"},{"STUDYID":"CDISCPILOT01","USUBJID":"01-701-1023","PARAMCD":"SYSBPST","PARAM":"Systolic Blood Pressure, Standing","ATPT":"STANDING","AVAL":138,"AVALU":"mmHg","SRCVISIT":"AMBUL ECG PLACEMENT","ADT":"2012-08-26","DY":22,"ADY":22,"AVISIT":"Week 2","AVISITN":2,"ATARGDY":15,"BASE":132,"ABLFL":null,"CHG":6,"PCHG":4.5455,"ANL01FL":null,"DTYPE":null,"ANL02FL":null,"TRTP":"Placebo","TRT01P":"Placebo","TRT01PN":null,"TRT01A":"Placebo","SITEGR1":900,"SITEID":701,"TRTSDT":"2012-08-05","TRTEDT":"2012-09-01","ITTFL":"Y","SAFFL":"Y","EFFFL":"N","COMPLFL":"N"},{"STUDYID":"CDISCPILOT01","USUBJID":"01-701-1023","PARAMCD":"SYSBPSU","PARAM":"Systolic Blood Pressure, Supine","ATPT":"SUPINE","AVAL":122,"AVALU":"mmHg","SRCVISIT":"WEEK 2","ADT":"2012-08-27","DY":23,"ADY":23,"AVISIT":"Week 4","AVISITN":4,"ATARGDY":29,"BASE":130,"ABLFL":null,"CHG":-8,"PCHG":-6.1538,"ANL01FL":null,"DTYPE":null,"ANL02FL":null,"TRTP":"Placebo","TRT01P":"Placebo","TRT01PN":null,"TRT01A":"Placebo","SITEGR1":900,"SITEID":701,"TRTSDT":"2012-08-05","TRTEDT":"2012-09-01","ITTFL":"Y","SAFFL":"Y","EFFFL":"N","COMPLFL":"N"},{"STUDYID":"CDISCPILOT01","USUBJID":"01-701-1023","PARAMCD":"SYSBPST","PARAM":"Systolic Blood Pressure, Standing","ATPT":"STANDING","AVAL":130,"AVALU":"mmHg","SRCVISIT":"WEEK 2","ADT":"2012-08-27","DY":23,"ADY":23,"AVISIT":"Week 4","AVISITN":4,"ATARGDY":29,"BASE":132,"ABLFL":null,"CHG":-2,"PCHG":-1.5152,"ANL01FL":null,"DTYPE":null,"ANL02FL":null,"TRTP":"Placebo","TRT01P":"Placebo","TRT01PN":null,"TRT01A":"Placebo","SITEGR1":900,"SITEID":701,"TRTSDT":"2012-08-05","TRTEDT":"2012-09-01","ITTFL":"Y","SAFFL":"Y","EFFFL":"N","COMPLFL":"N"},{"STUDYID":"CDISCPILOT01","USUBJID":"01-701-1023","PARAMCD":"SYSBPST","PARAM":"Systolic Blood Pressure, Standing","ATPT":"STANDING","AVAL":138,"AVALU":"mmHg","SRCVISIT":"WEEK 2","ADT":"2012-08-27","DY":23,"ADY":23,"AVISIT":"Week 4","AVISITN":4,"ATARGDY":29,"BASE":132,"ABLFL":null,"CHG":6,"PCHG":4.5455,"ANL01FL":null,"DTYPE":null,"ANL02FL":null,"TRTP":"Placebo","TRT01P":"Placebo","TRT01PN":null,"TRT01A":"Placebo","SITEGR1":900,"SITEID":701,"TRTSDT":"2012-08-05","TRTEDT":"2012-09-01","ITTFL":"Y","SAFFL":"Y","EFFFL":"N","COMPLFL":"N"},{"STUDYID":"CDISCPILOT01","USUBJID":"01-701-1023","PARAMCD":"SYSBPSU","PARAM":"Systolic Blood Pressure, Supine","ATPT":"SUPINE","AVAL":130,"AVALU":"mmHg","SRCVISIT":"WEEK 4","ADT":"2012-09-02","DY":29,"ADY":29,"AVISIT":"Week 4","AVISITN":4,"ATARGDY":29,"BASE":130,"ABLFL":null,"CHG":0,"PCHG":0,"ANL01FL":"Y","DTYPE":null,"ANL02FL":"Y","TRTP":"Placebo","TRT01P":"Placebo","TRT01PN":null,"TRT01A":"Placebo","SITEGR1":900,"SITEID":701,"TRTSDT":"2012-08-05","TRTEDT":"2012-09-01","ITTFL":"Y","SAFFL":"Y","EFFFL":"N","COMPLFL":"N"},{"STUDYID":"CDISCPILOT01","USUBJID":"01-701-1023","PARAMCD":"SYSBPST","PARAM":"Systolic Blood Pressure, Standing","ATPT":"STANDING","AVAL":134,"AVALU":"mmHg","SRCVISIT":"WEEK 4","ADT":"2012-09-02","DY":29,"ADY":29,"AVISIT":"Week 4","AVISITN":4,"ATARGDY":29,"BASE":132,"ABLFL":null,"CHG":2,"PCHG":1.5152,"ANL01FL":"Y","DTYPE":null,"ANL02FL":"Y","TRTP":"Placebo","TRT01P":"Placebo","TRT01PN":null,"TRT01A":"Placebo","SITEGR1":900,"SITEID":701,"TRTSDT":"2012-08-05","TRTEDT":"2012-09-01","ITTFL":"Y","SAFFL":"Y","EFFFL":"N","COMPLFL":"N"},{"STUDYID":"CDISCPILOT01","USUBJID":"01-701-1023","PARAMCD":"SYSBPST","PARAM":"Systolic Blood Pressure, Standing","ATPT":"STANDING","AVAL":136,"AVALU":"mmHg","SRCVISIT":"WEEK 4","ADT":"2012-09-02","DY":29,"ADY":29,"AVISIT":"Week 4","AVISITN":4,"ATARGDY":29,"BASE":132,"ABLFL":null,"CHG":4,"PCHG":3.0303,"ANL01FL":null,"DTYPE":null,"ANL02FL":null,"TRTP":"Placebo","TRT01P":"Placebo","TRT01PN":null,"TRT01A":"Placebo","SITEGR1":900,"SITEID":701,"TRTSDT":"2012-08-05","TRTEDT":"2012-09-01","ITTFL":"Y","SAFFL":"Y","EFFFL":"N","COMPLFL":"N"},{"STUDYID":"CDISCPILOT01","USUBJID":"01-701-1023","PARAMCD":"SYSBPSU","PARAM":"Systolic Blood Pressure, Supine","ATPT":"SUPINE","AVAL":125,"AVALU":"mmHg","SRCVISIT":"RETRIEVAL","ADT":"2013-02-18","DY":198,"ADY":198,"AVISIT":"Week 26","AVISITN":26,"ATARGDY":183,"BASE":130,"ABLFL":null,"CHG":-5,"PCHG":-3.8462,"ANL01FL":"Y","DTYPE":null,"ANL02FL":"Y","TRTP":"Placebo","TRT01P":"Placebo","TRT01PN":null,"TRT01A":"Placebo","SITEGR1":900,"SITEID":701,"TRTSDT":"2012-08-05","TRTEDT":"2012-09-01","ITTFL":"Y","SAFFL":"Y","EFFFL":"N","COMPLFL":"N"},{"STUDYID":"CDISCPILOT01","USUBJID":"01-701-1023","PARAMCD":"SYSBPST","PARAM":"Systolic Blood Pressure, Standing","ATPT":"STANDING","AVAL":110,"AVALU":"mmHg","SRCVISIT":"RETRIEVAL","ADT":"2013-02-18","DY":198,"ADY":198,"AVISIT":"Week 26","AVISITN":26,"ATARGDY":183,"BASE":132,"ABLFL":null,"CHG":-22,"PCHG":-16.6667,"ANL01FL":"Y","DTYPE":null,"ANL02FL":"Y","TRTP":"Placebo","TRT01P":"Placebo","TRT01PN":null,"TRT01A":"Placebo","SITEGR1":900,"SITEID":701,"TRTSDT":"2012-08-05","TRTEDT":"2012-09-01","ITTFL":"Y","SAFFL":"Y","EFFFL":"N","COMPLFL":"N"},{"STUDYID":"CDISCPILOT01","USUBJID":"01-701-1023","PARAMCD":"SYSBPST","PARAM":"Systolic Blood Pressure, Standing","ATPT":"STANDING","AVAL":130,"AVALU":"mmHg","SRCVISIT":"RETRIEVAL","ADT":"2013-02-18","DY":198,"ADY":198,"AVISIT":"Week 26","AVISITN":26,"ATARGDY":183,"BASE":132,"ABLFL":null,"CHG":-2,"PCHG":-1.5152,"ANL01FL":null,"DTYPE":null,"ANL02FL":null,"TRTP":"Placebo","TRT01P":"Placebo","TRT01PN":null,"TRT01A":"Placebo","SITEGR1":900,"SITEID":701,"TRTSDT":"2012-08-05","TRTEDT":"2012-09-01","ITTFL":"Y","SAFFL":"Y","EFFFL":"N","COMPLFL":"N"},{"STUDYID":"CDISCPILOT01","USUBJID":"01-701-1023","PARAMCD":"TEMP","PARAM":"Temperature","ATPT":null,"AVAL":36.56,"AVALU":"C","SRCVISIT":"SCREENING 1","ADT":"2012-07-22","DY":-14,"ADY":-14,"AVISIT":"Baseline","AVISITN":0,"ATARGDY":1,"BASE":36.28,"ABLFL":null,"CHG":null,"PCHG":null,"ANL01FL":null,"DTYPE":null,"ANL02FL":null,"TRTP":"Placebo","TRT01P":"Placebo","TRT01PN":null,"TRT01A":"Placebo","SITEGR1":900,"SITEID":701,"TRTSDT":"2012-08-05","TRTEDT":"2012-09-01","ITTFL":"Y","SAFFL":"Y","EFFFL":"N","COMPLFL":"N"},{"STUDYID":"CDISCPILOT01","USUBJID":"01-701-1023","PARAMCD":"TEMP","PARAM":"Temperature","ATPT":null,"AVAL":36.56,"AVALU":"C","SRCVISIT":"SCREENING 2","ADT":"2012-08-03","DY":-2,"ADY":-2,"AVISIT":"Baseline","AVISITN":0,"ATARGDY":1,"BASE":36.28,"ABLFL":null,"CHG":null,"PCHG":null,"ANL01FL":null,"DTYPE":null,"ANL02FL":null,"TRTP":"Placebo","TRT01P":"Placebo","TRT01PN":null,"TRT01A":"Placebo","SITEGR1":900,"SITEID":701,"TRTSDT":"2012-08-05","TRTEDT":"2012-09-01","ITTFL":"Y","SAFFL":"Y","EFFFL":"N","COMPLFL":"N"},{"STUDYID":"CDISCPILOT01","USUBJID":"01-701-1023","PARAMCD":"TEMP","PARAM":"Temperature","ATPT":null,"AVAL":36.28,"AVALU":"C","SRCVISIT":"BASELINE","ADT":"2012-08-05","DY":1,"ADY":1,"AVISIT":"Baseline","AVISITN":0,"ATARGDY":1,"BASE":36.28,"ABLFL":"Y","CHG":null,"PCHG":null,"ANL01FL":"Y","DTYPE":null,"ANL02FL":"Y","TRTP":"Placebo","TRT01P":"Placebo","TRT01PN":null,"TRT01A":"Placebo","SITEGR1":900,"SITEID":701,"TRTSDT":"2012-08-05","TRTEDT":"2012-09-01","ITTFL":"Y","SAFFL":"Y","EFFFL":"N","COMPLFL":"N"},{"STUDYID":"CDISCPILOT01","USUBJID":"01-701-1023","PARAMCD":"TEMP","PARAM":"Temperature","ATPT":null,"AVAL":36.44,"AVALU":"C","SRCVISIT":"AMBUL ECG PLACEMENT","ADT":"2012-08-26","DY":22,"ADY":22,"AVISIT":"Week 2","AVISITN":2,"ATARGDY":15,"BASE":36.28,"ABLFL":null,"CHG":0.16,"PCHG":0.441,"ANL01FL":"Y","DTYPE":null,"ANL02FL":"Y","TRTP":"Placebo","TRT01P":"Placebo","TRT01PN":null,"TRT01A":"Placebo","SITEGR1":900,"SITEID":701,"TRTSDT":"2012-08-05","TRTEDT":"2012-09-01","ITTFL":"Y","SAFFL":"Y","EFFFL":"N","COMPLFL":"N"},{"STUDYID":"CDISCPILOT01","USUBJID":"01-701-1023","PARAMCD":"TEMP","PARAM":"Temperature","ATPT":null,"AVAL":36.94,"AVALU":"C","SRCVISIT":"WEEK 2","ADT":"2012-08-27","DY":23,"ADY":23,"AVISIT":"Week 4","AVISITN":4,"ATARGDY":29,"BASE":36.28,"ABLFL":null,"CHG":0.66,"PCHG":1.8192,"ANL01FL":null,"DTYPE":null,"ANL02FL":null,"TRTP":"Placebo","TRT01P":"Placebo","TRT01PN":null,"TRT01A":"Placebo","SITEGR1":900,"SITEID":701,"TRTSDT":"2012-08-05","TRTEDT":"2012-09-01","ITTFL":"Y","SAFFL":"Y","EFFFL":"N","COMPLFL":"N"},{"STUDYID":"CDISCPILOT01","USUBJID":"01-701-1023","PARAMCD":"TEMP","PARAM":"Temperature","ATPT":null,"AVAL":36.22,"AVALU":"C","SRCVISIT":"WEEK 4","ADT":"2012-09-02","DY":29,"ADY":29,"AVISIT":"Week 4","AVISITN":4,"ATARGDY":29,"BASE":36.28,"ABLFL":null,"CHG":-0.06,"PCHG":-0.1654,"ANL01FL":"Y","DTYPE":null,"ANL02FL":"Y","TRTP":"Placebo","TRT01P":"Placebo","TRT01PN":null,"TRT01A":"Placebo","SITEGR1":900,"SITEID":701,"TRTSDT":"2012-08-05","TRTEDT":"2012-09-01","ITTFL":"Y","SAFFL":"Y","EFFFL":"N","COMPLFL":"N"},{"STUDYID":"CDISCPILOT01","USUBJID":"01-701-1023","PARAMCD":"TEMP","PARAM":"Temperature","ATPT":null,"AVAL":36.56,"AVALU":"C","SRCVISIT":"RETRIEVAL","ADT":"2013-02-18","DY":198,"ADY":198,"AVISIT":"Week 26","AVISITN":26,"ATARGDY":183,"BASE":36.28,"ABLFL":null,"CHG":0.28,"PCHG":0.7718,"ANL01FL":"Y","DTYPE":null,"ANL02FL":"Y","TRTP":"Placebo","TRT01P":"Placebo","TRT01PN":null,"TRT01A":"Placebo","SITEGR1":900,"SITEID":701,"TRTSDT":"2012-08-05","TRTEDT":"2012-09-01","ITTFL":"Y","SAFFL":"Y","EFFFL":"N","COMPLFL":"N"},{"STUDYID":"CDISCPILOT01","USUBJID":"01-701-1023","PARAMCD":"WEIGHT","PARAM":"Weight","ATPT":null,"AVAL":78.47,"AVALU":"kg","SRCVISIT":"SCREENING 1","ADT":"2012-07-22","DY":-14,"ADY":-14,"AVISIT":"Baseline","AVISITN":0,"ATARGDY":1,"BASE":80.29,"ABLFL":null,"CHG":null,"PCHG":null,"ANL01FL":null,"DTYPE":null,"ANL02FL":null,"TRTP":"Placebo","TRT01P":"Placebo","TRT01PN":null,"TRT01A":"Placebo","SITEGR1":900,"SITEID":701,"TRTSDT":"2012-08-05","TRTEDT":"2012-09-01","ITTFL":"Y","SAFFL":"Y","EFFFL":"N","COMPLFL":"N"},{"STUDYID":"CDISCPILOT01","USUBJID":"01-701-1023","PARAMCD":"WEIGHT","PARAM":"Weight","ATPT":null,"AVAL":80.29,"AVALU":"kg","SRCVISIT":"BASELINE","ADT":"2012-08-05","DY":1,"ADY":1,"AVISIT":"Baseline","AVISITN":0,"ATARGDY":1,"BASE":80.29,"ABLFL":"Y","CHG":null,"PCHG":null,"ANL01FL":"Y","DTYPE":null,"ANL02FL":"Y","TRTP":"Placebo","TRT01P":"Placebo","TRT01PN":null,"TRT01A":"Placebo","SITEGR1":900,"SITEID":701,"TRTSDT":"2012-08-05","TRTEDT":"2012-09-01","ITTFL":"Y","SAFFL":"Y","EFFFL":"N","COMPLFL":"N"},{"STUDYID":"CDISCPILOT01","USUBJID":"01-701-1023","PARAMCD":"WEIGHT","PARAM":"Weight","ATPT":null,"AVAL":80.74,"AVALU":"kg","SRCVISIT":"WEEK 2","ADT":"2012-08-27","DY":23,"ADY":23,"AVISIT":"Week 4","AVISITN":4,"ATARGDY":29,"BASE":80.29,"ABLFL":null,"CHG":0.45,"PCHG":0.5605,"ANL01FL":null,"DTYPE":null,"ANL02FL":null,"TRTP":"Placebo","TRT01P":"Placebo","TRT01PN":null,"TRT01A":"Placebo","SITEGR1":900,"SITEID":701,"TRTSDT":"2012-08-05","TRTEDT":"2012-09-01","ITTFL":"Y","SAFFL":"Y","EFFFL":"N","COMPLFL":"N"},{"STUDYID":"CDISCPILOT01","USUBJID":"01-701-1023","PARAMCD":"WEIGHT","PARAM":"Weight","ATPT":null,"AVAL":80.29,"AVALU":"kg","SRCVISIT":"WEEK 4","ADT":"2012-09-02","DY":29,"ADY":29,"AVISIT":"Week 4","AVISITN":4,"ATARGDY":29,"BASE":80.29,"ABLFL":null,"CHG":0,"PCHG":0,"ANL01FL":"Y","DTYPE":null,"ANL02FL":"Y","TRTP":"Placebo","TRT01P":"Placebo","TRT01PN":null,"TRT01A":"Placebo","SITEGR1":900,"SITEID":701,"TRTSDT":"2012-08-05","TRTEDT":"2012-09-01","ITTFL":"Y","SAFFL":"Y","EFFFL":"N","COMPLFL":"N"},{"STUDYID":"CDISCPILOT01","USUBJID":"01-701-1028","PARAMCD":"DIABPSU","PARAM":"Diastolic Blood Pressure, Supine","ATPT":"SUPINE","AVAL":76,"AVALU":"mmHg","SRCVISIT":"SCREENING 1","ADT":"2013-07-11","DY":-8,"ADY":-8,"AVISIT":"Baseline","AVISITN":0,"ATARGDY":1,"BASE":85,"ABLFL":null,"CHG":null,"PCHG":null,"ANL01FL":null,"DTYPE":null,"ANL02FL":null,"TRTP":"Xanomeline High Dose","TRT01P":"Xanomeline High Dose","TRT01PN":null,"TRT01A":"Xanomeline High Dose","SITEGR1":900,"SITEID":701,"TRTSDT":"2013-07-19","TRTEDT":"2014-01-14","ITTFL":"Y","SAFFL":"Y","EFFFL":"N","COMPLFL":"Y"},{"STUDYID":"CDISCPILOT01","USUBJID":"01-701-1028","PARAMCD":"DIABPST","PARAM":"Diastolic Blood Pressure, Standing","ATPT":"STANDING","AVAL":70,"AVALU":"mmHg","SRCVISIT":"SCREENING 1","ADT":"2013-07-11","DY":-8,"ADY":-8,"AVISIT":"Baseline","AVISITN":0,"ATARGDY":1,"BASE":76,"ABLFL":null,"CHG":null,"PCHG":null,"ANL01FL":null,"DTYPE":null,"ANL02FL":null,"TRTP":"Xanomeline High Dose","TRT01P":"Xanomeline High Dose","TRT01PN":null,"TRT01A":"Xanomeline High Dose","SITEGR1":900,"SITEID":701,"TRTSDT":"2013-07-19","TRTEDT":"2014-01-14","ITTFL":"Y","SAFFL":"Y","EFFFL":"N","COMPLFL":"Y"},{"STUDYID":"CDISCPILOT01","USUBJID":"01-701-1028","PARAMCD":"DIABPST","PARAM":"Diastolic Blood Pressure, Standing","ATPT":"STANDING","AVAL":73,"AVALU":"mmHg","SRCVISIT":"SCREENING 1","ADT":"2013-07-11","DY":-8,"ADY":-8,"AVISIT":"Baseline","AVISITN":0,"ATARGDY":1,"BASE":76,"ABLFL":null,"CHG":null,"PCHG":null,"ANL01FL":null,"DTYPE":null,"ANL02FL":null,"TRTP":"Xanomeline High Dose","TRT01P":"Xanomeline High Dose","TRT01PN":null,"TRT01A":"Xanomeline High Dose","SITEGR1":900,"SITEID":701,"TRTSDT":"2013-07-19","TRTEDT":"2014-01-14","ITTFL":"Y","SAFFL":"Y","EFFFL":"N","COMPLFL":"Y"},{"STUDYID":"CDISCPILOT01","USUBJID":"01-701-1028","PARAMCD":"DIABPSU","PARAM":"Diastolic Blood Pressure, Supine","ATPT":"SUPINE","AVAL":76,"AVALU":"mmHg","SRCVISIT":"SCREENING 2","ADT":"2013-07-17","DY":-2,"ADY":-2,"AVISIT":"Baseline","AVISITN":0,"ATARGDY":1,"BASE":85,"ABLFL":null,"CHG":null,"PCHG":null,"ANL01FL":null,"DTYPE":null,"ANL02FL":null,"TRTP":"Xanomeline High Dose","TRT01P":"Xanomeline High Dose","TRT01PN":null,"TRT01A":"Xanomeline High Dose","SITEGR1":900,"SITEID":701,"TRTSDT":"2013-07-19","TRTEDT":"2014-01-14","ITTFL":"Y","SAFFL":"Y","EFFFL":"N","COMPLFL":"Y"},{"STUDYID":"CDISCPILOT01","USUBJID":"01-701-1028","PARAMCD":"DIABPST","PARAM":"Diastolic Blood Pressure, Standing","ATPT":"STANDING","AVAL":76,"AVALU":"mmHg","SRCVISIT":"SCREENING 2","ADT":"2013-07-17","DY":-2,"ADY":-2,"AVISIT":"Baseline","AVISITN":0,"ATARGDY":1,"BASE":76,"ABLFL":null,"CHG":null,"PCHG":null,"ANL01FL":null,"DTYPE":null,"ANL02FL":null,"TRTP":"Xanomeline High Dose","TRT01P":"Xanomeline High Dose","TRT01PN":null,"TRT01A":"Xanomeline High Dose","SITEGR1":900,"SITEID":701,"TRTSDT":"2013-07-19","TRTEDT":"2014-01-14","ITTFL":"Y","SAFFL":"Y","EFFFL":"N","COMPLFL":"Y"},{"STUDYID":"CDISCPILOT01","USUBJID":"01-701-1028","PARAMCD":"DIABPST","PARAM":"Diastolic Blood Pressure, Standing","ATPT":"STANDING","AVAL":85,"AVALU":"mmHg","SRCVISIT":"SCREENING 2","ADT":"2013-07-17","DY":-2,"ADY":-2,"AVISIT":"Baseline","AVISITN":0,"ATARGDY":1,"BASE":76,"ABLFL":null,"CHG":null,"PCHG":null,"ANL01FL":null,"DTYPE":null,"ANL02FL":null,"TRTP":"Xanomeline High Dose","TRT01P":"Xanomeline High Dose","TRT01PN":null,"TRT01A":"Xanomeline High Dose","SITEGR1":900,"SITEID":701,"TRTSDT":"2013-07-19","TRTEDT":"2014-01-14","ITTFL":"Y","SAFFL":"Y","EFFFL":"N","COMPLFL":"Y"},{"STUDYID":"CDISCPILOT01","USUBJID":"01-701-1028","PARAMCD":"DIABPSU","PARAM":"Diastolic Blood Pressure, Supine","ATPT":"SUPINE","AVAL":85,"AVALU":"mmHg","SRCVISIT":"BASELINE","ADT":"2013-07-19","DY":1,"ADY":1,"AVISIT":"Baseline","AVISITN":0,"ATARGDY":1,"BASE":85,"ABLFL":"Y","CHG":null,"PCHG":null,"ANL01FL":"Y","DTYPE":null,"ANL02FL":"Y","TRTP":"Xanomeline High Dose","TRT01P":"Xanomeline High Dose","TRT01PN":null,"TRT01A":"Xanomeline High Dose","SITEGR1":900,"SITEID":701,"TRTSDT":"2013-07-19","TRTEDT":"2014-01-14","ITTFL":"Y","SAFFL":"Y","EFFFL":"N","COMPLFL":"Y"},{"STUDYID":"CDISCPILOT01","USUBJID":"01-701-1028","PARAMCD":"DIABPST","PARAM":"Diastolic Blood Pressure, Standing","ATPT":"STANDING","AVAL":76,"AVALU":"mmHg","SRCVISIT":"BASELINE","ADT":"2013-07-19","DY":1,"ADY":1,"AVISIT":"Baseline","AVISITN":0,"ATARGDY":1,"BASE":76,"ABLFL":"Y","CHG":null,"PCHG":null,"ANL01FL":"Y","DTYPE":null,"ANL02FL":"Y","TRTP":"Xanomeline High Dose","TRT01P":"Xanomeline High Dose","TRT01PN":null,"TRT01A":"Xanomeline High Dose","SITEGR1":900,"SITEID":701,"TRTSDT":"2013-07-19","TRTEDT":"2014-01-14","ITTFL":"Y","SAFFL":"Y","EFFFL":"N","COMPLFL":"Y"},{"STUDYID":"CDISCPILOT01","USUBJID":"01-701-1028","PARAMCD":"DIABPST","PARAM":"Diastolic Blood Pressure, Standing","ATPT":"STANDING","AVAL":75,"AVALU":"mmHg","SRCVISIT":"BASELINE","ADT":"2013-07-19","DY":1,"ADY":1,"AVISIT":"Baseline","AVISITN":0,"ATARGDY":1,"BASE":76,"ABLFL":"Y","CHG":null,"PCHG":null,"ANL01FL":null,"DTYPE":null,"ANL02FL":null,"TRTP":"Xanomeline High Dose","TRT01P":"Xanomeline High Dose","TRT01PN":null,"TRT01A":"Xanomeline High Dose","SITEGR1":900,"SITEID":701,"TRTSDT":"2013-07-19","TRTEDT":"2014-01-14","ITTFL":"Y","SAFFL":"Y","EFFFL":"N","COMPLFL":"Y"},{"STUDYID":"CDISCPILOT01","USUBJID":"01-701-1028","PARAMCD":"DIABPSU","PARAM":"Diastolic Blood Pressure, Supine","ATPT":"SUPINE","AVAL":82,"AVALU":"mmHg","SRCVISIT":"AMBUL ECG PLACEMENT","ADT":"2013-07-31","DY":13,"ADY":13,"AVISIT":"Week 2","AVISITN":2,"ATARGDY":15,"BASE":85,"ABLFL":null,"CHG":-3,"PCHG":-3.5294,"ANL01FL":null,"DTYPE":null,"ANL02FL":null,"TRTP":"Xanomeline High Dose","TRT01P":"Xanomeline High Dose","TRT01PN":null,"TRT01A":"Xanomeline High Dose","SITEGR1":900,"SITEID":701,"TRTSDT":"2013-07-19","TRTEDT":"2014-01-14","ITTFL":"Y","SAFFL":"Y","EFFFL":"N","COMPLFL":"Y"},{"STUDYID":"CDISCPILOT01","USUBJID":"01-701-1028","PARAMCD":"DIABPST","PARAM":"Diastolic Blood Pressure, Standing","ATPT":"STANDING","AVAL":82,"AVALU":"mmHg","SRCVISIT":"AMBUL ECG PLACEMENT","ADT":"2013-07-31","DY":13,"ADY":13,"AVISIT":"Week 2","AVISITN":2,"ATARGDY":15,"BASE":76,"ABLFL":null,"CHG":6,"PCHG":7.8947,"ANL01FL":null,"DTYPE":null,"ANL02FL":null,"TRTP":"Xanomeline High Dose","TRT01P":"Xanomeline High Dose","TRT01PN":null,"TRT01A":"Xanomeline High Dose","SITEGR1":900,"SITEID":701,"TRTSDT":"2013-07-19","TRTEDT":"2014-01-14","ITTFL":"Y","SAFFL":"Y","EFFFL":"N","COMPLFL":"Y"},{"STUDYID":"CDISCPILOT01","USUBJID":"01-701-1028","PARAMCD":"DIABPST","PARAM":"Diastolic Blood Pressure, Standing","ATPT":"STANDING","AVAL":84,"AVALU":"mmHg","SRCVISIT":"AMBUL ECG PLACEMENT","ADT":"2013-07-31","DY":13,"ADY":13,"AVISIT":"Week 2","AVISITN":2,"ATARGDY":15,"BASE":76,"ABLFL":null,"CHG":8,"PCHG":10.5263,"ANL01FL":null,"DTYPE":null,"ANL02FL":null,"TRTP":"Xanomeline High Dose","TRT01P":"Xanomeline High Dose","TRT01PN":null,"TRT01A":"Xanomeline High Dose","SITEGR1":900,"SITEID":701,"TRTSDT":"2013-07-19","TRTEDT":"2014-01-14","ITTFL":"Y","SAFFL":"Y","EFFFL":"N","COMPLFL":"Y"},{"STUDYID":"CDISCPILOT01","USUBJID":"01-701-1028","PARAMCD":"DIABPSU","PARAM":"Diastolic Blood Pressure, Supine","ATPT":"SUPINE","AVAL":78,"AVALU":"mmHg","SRCVISIT":"WEEK 2","ADT":"2013-08-01","DY":14,"ADY":14,"AVISIT":"Week 2","AVISITN":2,"ATARGDY":15,"BASE":85,"ABLFL":null,"CHG":-7,"PCHG":-8.2353,"ANL01FL":"Y","DTYPE":null,"ANL02FL":"Y","TRTP":"Xanomeline High Dose","TRT01P":"Xanomeline High Dose","TRT01PN":null,"TRT01A":"Xanomeline High Dose","SITEGR1":900,"SITEID":701,"TRTSDT":"2013-07-19","TRTEDT":"2014-01-14","ITTFL":"Y","SAFFL":"Y","EFFFL":"N","COMPLFL":"Y"},{"STUDYID":"CDISCPILOT01","USUBJID":"01-701-1028","PARAMCD":"DIABPST","PARAM":"Diastolic Blood Pressure, Standing","ATPT":"STANDING","AVAL":80,"AVALU":"mmHg","SRCVISIT":"WEEK 2","ADT":"2013-08-01","DY":14,"ADY":14,"AVISIT":"Week 2","AVISITN":2,"ATARGDY":15,"BASE":76,"ABLFL":null,"CHG":4,"PCHG":5.2632,"ANL01FL":"Y","DTYPE":null,"ANL02FL":"Y","TRTP":"Xanomeline High Dose","TRT01P":"Xanomeline High Dose","TRT01PN":null,"TRT01A":"Xanomeline High Dose","SITEGR1":900,"SITEID":701,"TRTSDT":"2013-07-19","TRTEDT":"2014-01-14","ITTFL":"Y","SAFFL":"Y","EFFFL":"N","COMPLFL":"Y"},{"STUDYID":"CDISCPILOT01","USUBJID":"01-701-1028","PARAMCD":"DIABPST","PARAM":"Diastolic Blood Pressure, Standing","ATPT":"STANDING","AVAL":80,"AVALU":"mmHg","SRCVISIT":"WEEK 2","ADT":"2013-08-01","DY":14,"ADY":14,"AVISIT":"Week 2","AVISITN":2,"ATARGDY":15,"BASE":76,"ABLFL":null,"CHG":4,"PCHG":5.2632,"ANL01FL":null,"DTYPE":null,"ANL02FL":null,"TRTP":"Xanomeline High Dose","TRT01P":"Xanomeline High Dose","TRT01PN":null,"TRT01A":"Xanomeline High Dose","SITEGR1":900,"SITEID":701,"TRTSDT":"2013-07-19","TRTEDT":"2014-01-14","ITTFL":"Y","SAFFL":"Y","EFFFL":"N","COMPLFL":"Y"},{"STUDYID":"CDISCPILOT01","USUBJID":"01-701-1028","PARAMCD":"DIABPSU","PARAM":"Diastolic Blood Pressure, Supine","ATPT":"SUPINE","AVAL":69,"AVALU":"mmHg","SRCVISIT":"WEEK 4","ADT":"2013-08-14","DY":27,"ADY":27,"AVISIT":"Week 4","AVISITN":4,"ATARGDY":29,"BASE":85,"ABLFL":null,"CHG":-16,"PCHG":-18.8235,"ANL01FL":null,"DTYPE":null,"ANL02FL":null,"TRTP":"Xanomeline High Dose","TRT01P":"Xanomeline High Dose","TRT01PN":null,"TRT01A":"Xanomeline High Dose","SITEGR1":900,"SITEID":701,"TRTSDT":"2013-07-19","TRTEDT":"2014-01-14","ITTFL":"Y","SAFFL":"Y","EFFFL":"N","COMPLFL":"Y"},{"STUDYID":"CDISCPILOT01","USUBJID":"01-701-1028","PARAMCD":"DIABPST","PARAM":"Diastolic Blood Pressure, Standing","ATPT":"STANDING","AVAL":72,"AVALU":"mmHg","SRCVISIT":"WEEK 4","ADT":"2013-08-14","DY":27,"ADY":27,"AVISIT":"Week 4","AVISITN":4,"ATARGDY":29,"BASE":76,"ABLFL":null,"CHG":-4,"PCHG":-5.2632,"ANL01FL":null,"DTYPE":null,"ANL02FL":null,"TRTP":"Xanomeline High Dose","TRT01P":"Xanomeline High Dose","TRT01PN":null,"TRT01A":"Xanomeline High Dose","SITEGR1":900,"SITEID":701,"TRTSDT":"2013-07-19","TRTEDT":"2014-01-14","ITTFL":"Y","SAFFL":"Y","EFFFL":"N","COMPLFL":"Y"},{"STUDYID":"CDISCPILOT01","USUBJID":"01-701-1028","PARAMCD":"DIABPST","PARAM":"Diastolic Blood Pressure, Standing","ATPT":"STANDING","AVAL":68,"AVALU":"mmHg","SRCVISIT":"WEEK 4","ADT":"2013-08-14","DY":27,"ADY":27,"AVISIT":"Week 4","AVISITN":4,"ATARGDY":29,"BASE":76,"ABLFL":null,"CHG":-8,"PCHG":-10.5263,"ANL01FL":null,"DTYPE":null,"ANL02FL":null,"TRTP":"Xanomeline High Dose","TRT01P":"Xanomeline High Dose","TRT01PN":null,"TRT01A":"Xanomeline High Dose","SITEGR1":900,"SITEID":701,"TRTSDT":"2013-07-19","TRTEDT":"2014-01-14","ITTFL":"Y","SAFFL":"Y","EFFFL":"N","COMPLFL":"Y"},{"STUDYID":"CDISCPILOT01","USUBJID":"01-701-1028","PARAMCD":"DIABPSU","PARAM":"Diastolic Blood Pressure, Supine","ATPT":"SUPINE","AVAL":76,"AVALU":"mmHg","SRCVISIT":"AMBUL ECG REMOVAL","ADT":"2013-08-16","DY":29,"ADY":29,"AVISIT":"Week 4","AVISITN":4,"ATARGDY":29,"BASE":85,"ABLFL":null,"CHG":-9,"PCHG":-10.5882,"ANL01FL":"Y","DTYPE":null,"ANL02FL":"Y","TRTP":"Xanomeline High Dose","TRT01P":"Xanomeline High Dose","TRT01PN":null,"TRT01A":"Xanomeline High Dose","SITEGR1":900,"SITEID":701,"TRTSDT":"2013-07-19","TRTEDT":"2014-01-14","ITTFL":"Y","SAFFL":"Y","EFFFL":"N","COMPLFL":"Y"},{"STUDYID":"CDISCPILOT01","USUBJID":"01-701-1028","PARAMCD":"DIABPST","PARAM":"Diastolic Blood Pressure, Standing","ATPT":"STANDING","AVAL":85,"AVALU":"mmHg","SRCVISIT":"AMBUL ECG REMOVAL","ADT":"2013-08-16","DY":29,"ADY":29,"AVISIT":"Week 4","AVISITN":4,"ATARGDY":29,"BASE":76,"ABLFL":null,"CHG":9,"PCHG":11.8421,"ANL01FL":"Y","DTYPE":null,"ANL02FL":"Y","TRTP":"Xanomeline High Dose","TRT01P":"Xanomeline High Dose","TRT01PN":null,"TRT01A":"Xanomeline High Dose","SITEGR1":900,"SITEID":701,"TRTSDT":"2013-07-19","TRTEDT":"2014-01-14","ITTFL":"Y","SAFFL":"Y","EFFFL":"N","COMPLFL":"Y"},{"STUDYID":"CDISCPILOT01","USUBJID":"01-701-1028","PARAMCD":"DIABPST","PARAM":"Diastolic Blood Pressure, Standing","ATPT":"STANDING","AVAL":81,"AVALU":"mmHg","SRCVISIT":"AMBUL ECG REMOVAL","ADT":"2013-08-16","DY":29,"ADY":29,"AVISIT":"Week 4","AVISITN":4,"ATARGDY":29,"BASE":76,"ABLFL":null,"CHG":5,"PCHG":6.5789,"ANL01FL":null,"DTYPE":null,"ANL02FL":null,"TRTP":"Xanomeline High Dose","TRT01P":"Xanomeline High Dose","TRT01PN":null,"TRT01A":"Xanomeline High Dose","SITEGR1":900,"SITEID":701,"TRTSDT":"2013-07-19","TRTEDT":"2014-01-14","ITTFL":"Y","SAFFL":"Y","EFFFL":"N","COMPLFL":"Y"},{"STUDYID":"CDISCPILOT01","USUBJID":"01-701-1028","PARAMCD":"DIABPSU","PARAM":"Diastolic Blood Pressure, Supine","ATPT":"SUPINE","AVAL":69,"AVALU":"mmHg","SRCVISIT":"WEEK 6","ADT":"2013-08-29","DY":42,"ADY":42,"AVISIT":"Week 6","AVISITN":6,"ATARGDY":43,"BASE":85,"ABLFL":null,"CHG":-16,"PCHG":-18.8235,"ANL01FL":"Y","DTYPE":null,"ANL02FL":"Y","TRTP":"Xanomeline High Dose","TRT01P":"Xanomeline High Dose","TRT01PN":null,"TRT01A":"Xanomeline High Dose","SITEGR1":900,"SITEID":701,"TRTSDT":"2013-07-19","TRTEDT":"2014-01-14","ITTFL":"Y","SAFFL":"Y","EFFFL":"N","COMPLFL":"Y"},{"STUDYID":"CDISCPILOT01","USUBJID":"01-701-1028","PARAMCD":"DIABPST","PARAM":"Diastolic Blood Pressure, Standing","ATPT":"STANDING","AVAL":77,"AVALU":"mmHg","SRCVISIT":"WEEK 6","ADT":"2013-08-29","DY":42,"ADY":42,"AVISIT":"Week 6","AVISITN":6,"ATARGDY":43,"BASE":76,"ABLFL":null,"CHG":1,"PCHG":1.3158,"ANL01FL":"Y","DTYPE":null,"ANL02FL":"Y","TRTP":"Xanomeline High Dose","TRT01P":"Xanomeline High Dose","TRT01PN":null,"TRT01A":"Xanomeline High Dose","SITEGR1":900,"SITEID":701,"TRTSDT":"2013-07-19","TRTEDT":"2014-01-14","ITTFL":"Y","SAFFL":"Y","EFFFL":"N","COMPLFL":"Y"},{"STUDYID":"CDISCPILOT01","USUBJID":"01-701-1028","PARAMCD":"DIABPST","PARAM":"Diastolic Blood Pressure, Standing","ATPT":"STANDING","AVAL":76,"AVALU":"mmHg","SRCVISIT":"WEEK 6","ADT":"2013-08-29","DY":42,"ADY":42,"AVISIT":"Week 6","AVISITN":6,"ATARGDY":43,"BASE":76,"ABLFL":null,"CHG":0,"PCHG":0,"ANL01FL":null,"DTYPE":null,"ANL02FL":null,"TRTP":"Xanomeline High Dose","TRT01P":"Xanomeline High Dose","TRT01PN":null,"TRT01A":"Xanomeline High Dose","SITEGR1":900,"SITEID":701,"TRTSDT":"2013-07-19","TRTEDT":"2014-01-14","ITTFL":"Y","SAFFL":"Y","EFFFL":"N","COMPLFL":"Y"},{"STUDYID":"CDISCPILOT01","USUBJID":"01-701-1028","PARAMCD":"DIABPSU","PARAM":"Diastolic Blood Pressure, Supine","ATPT":"SUPINE","AVAL":76,"AVALU":"mmHg","SRCVISIT":"WEEK 8","ADT":"2013-09-10","DY":54,"ADY":54,"AVISIT":"Week 8","AVISITN":8,"ATARGDY":57,"BASE":85,"ABLFL":null,"CHG":-9,"PCHG":-10.5882,"ANL01FL":"Y","DTYPE":null,"ANL02FL":"Y","TRTP":"Xanomeline High Dose","TRT01P":"Xanomeline High Dose","TRT01PN":null,"TRT01A":"Xanomeline High Dose","SITEGR1":900,"SITEID":701,"TRTSDT":"2013-07-19","TRTEDT":"2014-01-14","ITTFL":"Y","SAFFL":"Y","EFFFL":"N","COMPLFL":"Y"},{"STUDYID":"CDISCPILOT01","USUBJID":"01-701-1028","PARAMCD":"DIABPST","PARAM":"Diastolic Blood Pressure, Standing","ATPT":"STANDING","AVAL":81,"AVALU":"mmHg","SRCVISIT":"WEEK 8","ADT":"2013-09-10","DY":54,"ADY":54,"AVISIT":"Week 8","AVISITN":8,"ATARGDY":57,"BASE":76,"ABLFL":null,"CHG":5,"PCHG":6.5789,"ANL01FL":"Y","DTYPE":null,"ANL02FL":"Y","TRTP":"Xanomeline High Dose","TRT01P":"Xanomeline High Dose","TRT01PN":null,"TRT01A":"Xanomeline High Dose","SITEGR1":900,"SITEID":701,"TRTSDT":"2013-07-19","TRTEDT":"2014-01-14","ITTFL":"Y","SAFFL":"Y","EFFFL":"N","COMPLFL":"Y"},{"STUDYID":"CDISCPILOT01","USUBJID":"01-701-1028","PARAMCD":"DIABPST","PARAM":"Diastolic Blood Pressure, Standing","ATPT":"STANDING","AVAL":84,"AVALU":"mmHg","SRCVISIT":"WEEK 8","ADT":"2013-09-10","DY":54,"ADY":54,"AVISIT":"Week 8","AVISITN":8,"ATARGDY":57,"BASE":76,"ABLFL":null,"CHG":8,"PCHG":10.5263,"ANL01FL":null,"DTYPE":null,"ANL02FL":null,"TRTP":"Xanomeline High Dose","TRT01P":"Xanomeline High Dose","TRT01PN":null,"TRT01A":"Xanomeline High Dose","SITEGR1":900,"SITEID":701,"TRTSDT":"2013-07-19","TRTEDT":"2014-01-14","ITTFL":"Y","SAFFL":"Y","EFFFL":"N","COMPLFL":"Y"},{"STUDYID":"CDISCPILOT01","USUBJID":"01-701-1028","PARAMCD":"DIABPSU","PARAM":"Diastolic Blood Pressure, Supine","ATPT":"SUPINE","AVAL":74,"AVALU":"mmHg","SRCVISIT":"WEEK 12","ADT":"2013-10-09","DY":83,"ADY":83,"AVISIT":"Week 12","AVISITN":12,"ATARGDY":85,"BASE":85,"ABLFL":null,"CHG":-11,"PCHG":-12.9412,"ANL01FL":"Y","DTYPE":null,"ANL02FL":"Y","TRTP":"Xanomeline High Dose","TRT01P":"Xanomeline High Dose","TRT01PN":null,"TRT01A":"Xanomeline High Dose","SITEGR1":900,"SITEID":701,"TRTSDT":"2013-07-19","TRTEDT":"2014-01-14","ITTFL":"Y","SAFFL":"Y","EFFFL":"N","COMPLFL":"Y"},{"STUDYID":"CDISCPILOT01","USUBJID":"01-701-1028","PARAMCD":"DIABPST","PARAM":"Diastolic Blood Pressure, Standing","ATPT":"STANDING","AVAL":83,"AVALU":"mmHg","SRCVISIT":"WEEK 12","ADT":"2013-10-09","DY":83,"ADY":83,"AVISIT":"Week 12","AVISITN":12,"ATARGDY":85,"BASE":76,"ABLFL":null,"CHG":7,"PCHG":9.2105,"ANL01FL":"Y","DTYPE":null,"ANL02FL":"Y","TRTP":"Xanomeline High Dose","TRT01P":"Xanomeline High Dose","TRT01PN":null,"TRT01A":"Xanomeline High Dose","SITEGR1":900,"SITEID":701,"TRTSDT":"2013-07-19","TRTEDT":"2014-01-14","ITTFL":"Y","SAFFL":"Y","EFFFL":"N","COMPLFL":"Y"},{"STUDYID":"CDISCPILOT01","USUBJID":"01-701-1028","PARAMCD":"DIABPST","PARAM":"Diastolic Blood Pressure, Standing","ATPT":"STANDING","AVAL":80,"AVALU":"mmHg","SRCVISIT":"WEEK 12","ADT":"2013-10-09","DY":83,"ADY":83,"AVISIT":"Week 12","AVISITN":12,"ATARGDY":85,"BASE":76,"ABLFL":null,"CHG":4,"PCHG":5.2632,"ANL01FL":null,"DTYPE":null,"ANL02FL":null,"TRTP":"Xanomeline High Dose","TRT01P":"Xanomeline High Dose","TRT01PN":null,"TRT01A":"Xanomeline High Dose","SITEGR1":900,"SITEID":701,"TRTSDT":"2013-07-19","TRTEDT":"2014-01-14","ITTFL":"Y","SAFFL":"Y","EFFFL":"N","COMPLFL":"Y"},{"STUDYID":"CDISCPILOT01","USUBJID":"01-701-1028","PARAMCD":"DIABPSU","PARAM":"Diastolic Blood Pressure, Supine","ATPT":"SUPINE","AVAL":75,"AVALU":"mmHg","SRCVISIT":"WEEK 16","ADT":"2013-11-06","DY":111,"ADY":111,"AVISIT":"Week 16","AVISITN":16,"ATARGDY":113,"BASE":85,"ABLFL":null,"CHG":-10,"PCHG":-11.7647,"ANL01FL":"Y","DTYPE":null,"ANL02FL":"Y","TRTP":"Xanomeline High Dose","TRT01P":"Xanomeline High Dose","TRT01PN":null,"TRT01A":"Xanomeline High Dose","SITEGR1":900,"SITEID":701,"TRTSDT":"2013-07-19","TRTEDT":"2014-01-14","ITTFL":"Y","SAFFL":"Y","EFFFL":"N","COMPLFL":"Y"},{"STUDYID":"CDISCPILOT01","USUBJID":"01-701-1028","PARAMCD":"DIABPST","PARAM":"Diastolic Blood Pressure, Standing","ATPT":"STANDING","AVAL":76,"AVALU":"mmHg","SRCVISIT":"WEEK 16","ADT":"2013-11-06","DY":111,"ADY":111,"AVISIT":"Week 16","AVISITN":16,"ATARGDY":113,"BASE":76,"ABLFL":null,"CHG":0,"PCHG":0,"ANL01FL":"Y","DTYPE":null,"ANL02FL":"Y","TRTP":"Xanomeline High Dose","TRT01P":"Xanomeline High Dose","TRT01PN":null,"TRT01A":"Xanomeline High Dose","SITEGR1":900,"SITEID":701,"TRTSDT":"2013-07-19","TRTEDT":"2014-01-14","ITTFL":"Y","SAFFL":"Y","EFFFL":"N","COMPLFL":"Y"},{"STUDYID":"CDISCPILOT01","USUBJID":"01-701-1028","PARAMCD":"DIABPST","PARAM":"Diastolic Blood Pressure, Standing","ATPT":"STANDING","AVAL":78,"AVALU":"mmHg","SRCVISIT":"WEEK 16","ADT":"2013-11-06","DY":111,"ADY":111,"AVISIT":"Week 16","AVISITN":16,"ATARGDY":113,"BASE":76,"ABLFL":null,"CHG":2,"PCHG":2.6316,"ANL01FL":null,"DTYPE":null,"ANL02FL":null,"TRTP":"Xanomeline High Dose","TRT01P":"Xanomeline High Dose","TRT01PN":null,"TRT01A":"Xanomeline High Dose","SITEGR1":900,"SITEID":701,"TRTSDT":"2013-07-19","TRTEDT":"2014-01-14","ITTFL":"Y","SAFFL":"Y","EFFFL":"N","COMPLFL":"Y"},{"STUDYID":"CDISCPILOT01","USUBJID":"01-701-1028","PARAMCD":"DIABPSU","PARAM":"Diastolic Blood Pressure, Supine","ATPT":"SUPINE","AVAL":79,"AVALU":"mmHg","SRCVISIT":"WEEK 20","ADT":"2013-12-04","DY":139,"ADY":139,"AVISIT":"Week 20","AVISITN":20,"ATARGDY":141,"BASE":85,"ABLFL":null,"CHG":-6,"PCHG":-7.0588,"ANL01FL":"Y","DTYPE":null,"ANL02FL":"Y","TRTP":"Xanomeline High Dose","TRT01P":"Xanomeline High Dose","TRT01PN":null,"TRT01A":"Xanomeline High Dose","SITEGR1":900,"SITEID":701,"TRTSDT":"2013-07-19","TRTEDT":"2014-01-14","ITTFL":"Y","SAFFL":"Y","EFFFL":"N","COMPLFL":"Y"},{"STUDYID":"CDISCPILOT01","USUBJID":"01-701-1028","PARAMCD":"DIABPST","PARAM":"Diastolic Blood Pressure, Standing","ATPT":"STANDING","AVAL":76,"AVALU":"mmHg","SRCVISIT":"WEEK 20","ADT":"2013-12-04","DY":139,"ADY":139,"AVISIT":"Week 20","AVISITN":20,"ATARGDY":141,"BASE":76,"ABLFL":null,"CHG":0,"PCHG":0,"ANL01FL":"Y","DTYPE":null,"ANL02FL":"Y","TRTP":"Xanomeline High Dose","TRT01P":"Xanomeline High Dose","TRT01PN":null,"TRT01A":"Xanomeline High Dose","SITEGR1":900,"SITEID":701,"TRTSDT":"2013-07-19","TRTEDT":"2014-01-14","ITTFL":"Y","SAFFL":"Y","EFFFL":"N","COMPLFL":"Y"},{"STUDYID":"CDISCPILOT01","USUBJID":"01-701-1028","PARAMCD":"DIABPST","PARAM":"Diastolic Blood Pressure, Standing","ATPT":"STANDING","AVAL":77,"AVALU":"mmHg","SRCVISIT":"WEEK 20","ADT":"2013-12-04","DY":139,"ADY":139,"AVISIT":"Week 20","AVISITN":20,"ATARGDY":141,"BASE":76,"ABLFL":null,"CHG":1,"PCHG":1.3158,"ANL01FL":null,"DTYPE":null,"ANL02FL":null,"TRTP":"Xanomeline High Dose","TRT01P":"Xanomeline High Dose","TRT01PN":null,"TRT01A":"Xanomeline High Dose","SITEGR1":900,"SITEID":701,"TRTSDT":"2013-07-19","TRTEDT":"2014-01-14","ITTFL":"Y","SAFFL":"Y","EFFFL":"N","COMPLFL":"Y"},{"STUDYID":"CDISCPILOT01","USUBJID":"01-701-1028","PARAMCD":"DIABPSU","PARAM":"Diastolic Blood Pressure, Supine","ATPT":"SUPINE","AVAL":73,"AVALU":"mmHg","SRCVISIT":"WEEK 24","ADT":"2014-01-06","DY":172,"ADY":172,"AVISIT":"Week 24","AVISITN":24,"ATARGDY":169,"BASE":85,"ABLFL":null,"CHG":-12,"PCHG":-14.1176,"ANL01FL":"Y","DTYPE":null,"ANL02FL":"Y","TRTP":"Xanomeline High Dose","TRT01P":"Xanomeline High Dose","TRT01PN":null,"TRT01A":"Xanomeline High Dose","SITEGR1":900,"SITEID":701,"TRTSDT":"2013-07-19","TRTEDT":"2014-01-14","ITTFL":"Y","SAFFL":"Y","EFFFL":"N","COMPLFL":"Y"},{"STUDYID":"CDISCPILOT01","USUBJID":"01-701-1028","PARAMCD":"DIABPST","PARAM":"Diastolic Blood Pressure, Standing","ATPT":"STANDING","AVAL":72,"AVALU":"mmHg","SRCVISIT":"WEEK 24","ADT":"2014-01-06","DY":172,"ADY":172,"AVISIT":"Week 24","AVISITN":24,"ATARGDY":169,"BASE":76,"ABLFL":null,"CHG":-4,"PCHG":-5.2632,"ANL01FL":"Y","DTYPE":null,"ANL02FL":"Y","TRTP":"Xanomeline High Dose","TRT01P":"Xanomeline High Dose","TRT01PN":null,"TRT01A":"Xanomeline High Dose","SITEGR1":900,"SITEID":701,"TRTSDT":"2013-07-19","TRTEDT":"2014-01-14","ITTFL":"Y","SAFFL":"Y","EFFFL":"N","COMPLFL":"Y"},{"STUDYID":"CDISCPILOT01","USUBJID":"01-701-1028","PARAMCD":"DIABPST","PARAM":"Diastolic Blood Pressure, Standing","ATPT":"STANDING","AVAL":77,"AVALU":"mmHg","SRCVISIT":"WEEK 24","ADT":"2014-01-06","DY":172,"ADY":172,"AVISIT":"Week 24","AVISITN":24,"ATARGDY":169,"BASE":76,"ABLFL":null,"CHG":1,"PCHG":1.3158,"ANL01FL":null,"DTYPE":null,"ANL02FL":null,"TRTP":"Xanomeline High Dose","TRT01P":"Xanomeline High Dose","TRT01PN":null,"TRT01A":"Xanomeline High Dose","SITEGR1":900,"SITEID":701,"TRTSDT":"2013-07-19","TRTEDT":"2014-01-14","ITTFL":"Y","SAFFL":"Y","EFFFL":"N","COMPLFL":"Y"},{"STUDYID":"CDISCPILOT01","USUBJID":"01-701-1028","PARAMCD":"DIABPSU","PARAM":"Diastolic Blood Pressure, Supine","ATPT":"SUPINE","AVAL":70,"AVALU":"mmHg","SRCVISIT":"WEEK 26","ADT":"2014-01-14","DY":180,"ADY":180,"AVISIT":"Week 26","AVISITN":26,"ATARGDY":183,"BASE":85,"ABLFL":null,"CHG":-15,"PCHG":-17.6471,"ANL01FL":"Y","DTYPE":null,"ANL02FL":"Y","TRTP":"Xanomeline High Dose","TRT01P":"Xanomeline High Dose","TRT01PN":null,"TRT01A":"Xanomeline High Dose","SITEGR1":900,"SITEID":701,"TRTSDT":"2013-07-19","TRTEDT":"2014-01-14","ITTFL":"Y","SAFFL":"Y","EFFFL":"N","COMPLFL":"Y"},{"STUDYID":"CDISCPILOT01","USUBJID":"01-701-1028","PARAMCD":"DIABPST","PARAM":"Diastolic Blood Pressure, Standing","ATPT":"STANDING","AVAL":79,"AVALU":"mmHg","SRCVISIT":"WEEK 26","ADT":"2014-01-14","DY":180,"ADY":180,"AVISIT":"Week 26","AVISITN":26,"ATARGDY":183,"BASE":76,"ABLFL":null,"CHG":3,"PCHG":3.9474,"ANL01FL":"Y","DTYPE":null,"ANL02FL":"Y","TRTP":"Xanomeline High Dose","TRT01P":"Xanomeline High Dose","TRT01PN":null,"TRT01A":"Xanomeline High Dose","SITEGR1":900,"SITEID":701,"TRTSDT":"2013-07-19","TRTEDT":"2014-01-14","ITTFL":"Y","SAFFL":"Y","EFFFL":"N","COMPLFL":"Y"},{"STUDYID":"CDISCPILOT01","USUBJID":"01-701-1028","PARAMCD":"DIABPST","PARAM":"Diastolic Blood Pressure, Standing","ATPT":"STANDING","AVAL":77,"AVALU":"mmHg","SRCVISIT":"WEEK 26","ADT":"2014-01-14","DY":180,"ADY":180,"AVISIT":"Week 26","AVISITN":26,"ATARGDY":183,"BASE":76,"ABLFL":null,"CHG":1,"PCHG":1.3158,"ANL01FL":null,"DTYPE":null,"ANL02FL":null,"TRTP":"Xanomeline High Dose","TRT01P":"Xanomeline High Dose","TRT01PN":null,"TRT01A":"Xanomeline High Dose","SITEGR1":900,"SITEID":701,"TRTSDT":"2013-07-19","TRTEDT":"2014-01-14","ITTFL":"Y","SAFFL":"Y","EFFFL":"N","COMPLFL":"Y"},{"STUDYID":"CDISCPILOT01","USUBJID":"01-701-1028","PARAMCD":"HEIGHT","PARAM":"Height","ATPT":null,"AVAL":177.8,"AVALU":"cm","SRCVISIT":"SCREENING 1","ADT":"2013-07-11","DY":-8,"ADY":-8,"AVISIT":"Baseline","AVISITN":0,"ATARGDY":1,"BASE":177.8,"ABLFL":"Y","CHG":null,"PCHG":null,"ANL01FL":"Y","DTYPE":null,"ANL02FL":"Y","TRTP":"Xanomeline High Dose","TRT01P":"Xanomeline High Dose","TRT01PN":null,"TRT01A":"Xanomeline High Dose","SITEGR1":900,"SITEID":701,"TRTSDT":"2013-07-19","TRTEDT":"2014-01-14","ITTFL":"Y","SAFFL":"Y","EFFFL":"N","COMPLFL":"Y"},{"STUDYID":"CDISCPILOT01","USUBJID":"01-701-1028","PARAMCD":"PULSESU","PARAM":"Pulse Rate, Supine","ATPT":"SUPINE","AVAL":54,"AVALU":"BEATS/MIN","SRCVISIT":"SCREENING 1","ADT":"2013-07-11","DY":-8,"ADY":-8,"AVISIT":"Baseline","AVISITN":0,"ATARGDY":1,"BASE":62,"ABLFL":null,"CHG":null,"PCHG":null,"ANL01FL":null,"DTYPE":null,"ANL02FL":null,"TRTP":"Xanomeline High Dose","TRT01P":"Xanomeline High Dose","TRT01PN":null,"TRT01A":"Xanomeline High Dose","SITEGR1":900,"SITEID":701,"TRTSDT":"2013-07-19","TRTEDT":"2014-01-14","ITTFL":"Y","SAFFL":"Y","EFFFL":"N","COMPLFL":"Y"},{"STUDYID":"CDISCPILOT01","USUBJID":"01-701-1028","PARAMCD":"PULSEST","PARAM":"Pulse Rate, Standing","ATPT":"STANDING","AVAL":59,"AVALU":"BEATS/MIN","SRCVISIT":"SCREENING 1","ADT":"2013-07-11","DY":-8,"ADY":-8,"AVISIT":"Baseline","AVISITN":0,"ATARGDY":1,"BASE":62,"ABLFL":null,"CHG":null,"PCHG":null,"ANL01FL":null,"DTYPE":null,"ANL02FL":null,"TRTP":"Xanomeline High Dose","TRT01P":"Xanomeline High Dose","TRT01PN":null,"TRT01A":"Xanomeline High Dose","SITEGR1":900,"SITEID":701,"TRTSDT":"2013-07-19","TRTEDT":"2014-01-14","ITTFL":"Y","SAFFL":"Y","EFFFL":"N","COMPLFL":"Y"},{"STUDYID":"CDISCPILOT01","USUBJID":"01-701-1028","PARAMCD":"PULSEST","PARAM":"Pulse Rate, Standing","ATPT":"STANDING","AVAL":59,"AVALU":"BEATS/MIN","SRCVISIT":"SCREENING 1","ADT":"2013-07-11","DY":-8,"ADY":-8,"AVISIT":"Baseline","AVISITN":0,"ATARGDY":1,"BASE":62,"ABLFL":null,"CHG":null,"PCHG":null,"ANL01FL":null,"DTYPE":null,"ANL02FL":null,"TRTP":"Xanomeline High Dose","TRT01P":"Xanomeline High Dose","TRT01PN":null,"TRT01A":"Xanomeline High Dose","SITEGR1":900,"SITEID":701,"TRTSDT":"2013-07-19","TRTEDT":"2014-01-14","ITTFL":"Y","SAFFL":"Y","EFFFL":"N","COMPLFL":"Y"},{"STUDYID":"CDISCPILOT01","USUBJID":"01-701-1028","PARAMCD":"PULSESU","PARAM":"Pulse Rate, Supine","ATPT":"SUPINE","AVAL":68,"AVALU":"BEATS/MIN","SRCVISIT":"SCREENING 2","ADT":"2013-07-17","DY":-2,"ADY":-2,"AVISIT":"Baseline","AVISITN":0,"ATARGDY":1,"BASE":62,"ABLFL":null,"CHG":null,"PCHG":null,"ANL01FL":null,"DTYPE":null,"ANL02FL":null,"TRTP":"Xanomeline High Dose","TRT01P":"Xanomeline High Dose","TRT01PN":null,"TRT01A":"Xanomeline High Dose","SITEGR1":900,"SITEID":701,"TRTSDT":"2013-07-19","TRTEDT":"2014-01-14","ITTFL":"Y","SAFFL":"Y","EFFFL":"N","COMPLFL":"Y"},{"STUDYID":"CDISCPILOT01","USUBJID":"01-701-1028","PARAMCD":"PULSEST","PARAM":"Pulse Rate, Standing","ATPT":"STANDING","AVAL":72,"AVALU":"BEATS/MIN","SRCVISIT":"SCREENING 2","ADT":"2013-07-17","DY":-2,"ADY":-2,"AVISIT":"Baseline","AVISITN":0,"ATARGDY":1,"BASE":62,"ABLFL":null,"CHG":null,"PCHG":null,"ANL01FL":null,"DTYPE":null,"ANL02FL":null,"TRTP":"Xanomeline High Dose","TRT01P":"Xanomeline High Dose","TRT01PN":null,"TRT01A":"Xanomeline High Dose","SITEGR1":900,"SITEID":701,"TRTSDT":"2013-07-19","TRTEDT":"2014-01-14","ITTFL":"Y","SAFFL":"Y","EFFFL":"N","COMPLFL":"Y"},{"STUDYID":"CDISCPILOT01","USUBJID":"01-701-1028","PARAMCD":"PULSEST","PARAM":"Pulse Rate, Standing","ATPT":"STANDING","AVAL":74,"AVALU":"BEATS/MIN","SRCVISIT":"SCREENING 2","ADT":"2013-07-17","DY":-2,"ADY":-2,"AVISIT":"Baseline","AVISITN":0,"ATARGDY":1,"BASE":62,"ABLFL":null,"CHG":null,"PCHG":null,"ANL01FL":null,"DTYPE":null,"ANL02FL":null,"TRTP":"Xanomeline High Dose","TRT01P":"Xanomeline High Dose","TRT01PN":null,"TRT01A":"Xanomeline High Dose","SITEGR1":900,"SITEID":701,"TRTSDT":"2013-07-19","TRTEDT":"2014-01-14","ITTFL":"Y","SAFFL":"Y","EFFFL":"N","COMPLFL":"Y"},{"STUDYID":"CDISCPILOT01","USUBJID":"01-701-1028","PARAMCD":"PULSESU","PARAM":"Pulse Rate, Supine","ATPT":"SUPINE","AVAL":62,"AVALU":"BEATS/MIN","SRCVISIT":"BASELINE","ADT":"2013-07-19","DY":1,"ADY":1,"AVISIT":"Baseline","AVISITN":0,"ATARGDY":1,"BASE":62,"ABLFL":"Y","CHG":null,"PCHG":null,"ANL01FL":"Y","DTYPE":null,"ANL02FL":"Y","TRTP":"Xanomeline High Dose","TRT01P":"Xanomeline High Dose","TRT01PN":null,"TRT01A":"Xanomeline High Dose","SITEGR1":900,"SITEID":701,"TRTSDT":"2013-07-19","TRTEDT":"2014-01-14","ITTFL":"Y","SAFFL":"Y","EFFFL":"N","COMPLFL":"Y"},{"STUDYID":"CDISCPILOT01","USUBJID":"01-701-1028","PARAMCD":"PULSEST","PARAM":"Pulse Rate, Standing","ATPT":"STANDING","AVAL":62,"AVALU":"BEATS/MIN","SRCVISIT":"BASELINE","ADT":"2013-07-19","DY":1,"ADY":1,"AVISIT":"Baseline","AVISITN":0,"ATARGDY":1,"BASE":62,"ABLFL":"Y","CHG":null,"PCHG":null,"ANL01FL":"Y","DTYPE":null,"ANL02FL":"Y","TRTP":"Xanomeline High Dose","TRT01P":"Xanomeline High Dose","TRT01PN":null,"TRT01A":"Xanomeline High Dose","SITEGR1":900,"SITEID":701,"TRTSDT":"2013-07-19","TRTEDT":"2014-01-14","ITTFL":"Y","SAFFL":"Y","EFFFL":"N","COMPLFL":"Y"},{"STUDYID":"CDISCPILOT01","USUBJID":"01-701-1028","PARAMCD":"PULSEST","PARAM":"Pulse Rate, Standing","ATPT":"STANDING","AVAL":66,"AVALU":"BEATS/MIN","SRCVISIT":"BASELINE","ADT":"2013-07-19","DY":1,"ADY":1,"AVISIT":"Baseline","AVISITN":0,"ATARGDY":1,"BASE":62,"ABLFL":"Y","CHG":null,"PCHG":null,"ANL01FL":null,"DTYPE":null,"ANL02FL":null,"TRTP":"Xanomeline High Dose","TRT01P":"Xanomeline High Dose","TRT01PN":null,"TRT01A":"Xanomeline High Dose","SITEGR1":900,"SITEID":701,"TRTSDT":"2013-07-19","TRTEDT":"2014-01-14","ITTFL":"Y","SAFFL":"Y","EFFFL":"N","COMPLFL":"Y"},{"STUDYID":"CDISCPILOT01","USUBJID":"01-701-1028","PARAMCD":"PULSESU","PARAM":"Pulse Rate, Supine","ATPT":"SUPINE","AVAL":60,"AVALU":"BEATS/MIN","SRCVISIT":"AMBUL ECG PLACEMENT","ADT":"2013-07-31","DY":13,"ADY":13,"AVISIT":"Week 2","AVISITN":2,"ATARGDY":15,"BASE":62,"ABLFL":null,"CHG":-2,"PCHG":-3.2258,"ANL01FL":null,"DTYPE":null,"ANL02FL":null,"TRTP":"Xanomeline High Dose","TRT01P":"Xanomeline High Dose","TRT01PN":null,"TRT01A":"Xanomeline High Dose","SITEGR1":900,"SITEID":701,"TRTSDT":"2013-07-19","TRTEDT":"2014-01-14","ITTFL":"Y","SAFFL":"Y","EFFFL":"N","COMPLFL":"Y"},{"STUDYID":"CDISCPILOT01","USUBJID":"01-701-1028","PARAMCD":"PULSEST","PARAM":"Pulse Rate, Standing","ATPT":"STANDING","AVAL":66,"AVALU":"BEATS/MIN","SRCVISIT":"AMBUL ECG PLACEMENT","ADT":"2013-07-31","DY":13,"ADY":13,"AVISIT":"Week 2","AVISITN":2,"ATARGDY":15,"BASE":62,"ABLFL":null,"CHG":4,"PCHG":6.4516,"ANL01FL":null,"DTYPE":null,"ANL02FL":null,"TRTP":"Xanomeline High Dose","TRT01P":"Xanomeline High Dose","TRT01PN":null,"TRT01A":"Xanomeline High Dose","SITEGR1":900,"SITEID":701,"TRTSDT":"2013-07-19","TRTEDT":"2014-01-14","ITTFL":"Y","SAFFL":"Y","EFFFL":"N","COMPLFL":"Y"},{"STUDYID":"CDISCPILOT01","USUBJID":"01-701-1028","PARAMCD":"PULSEST","PARAM":"Pulse Rate, Standing","ATPT":"STANDING","AVAL":65,"AVALU":"BEATS/MIN","SRCVISIT":"AMBUL ECG PLACEMENT","ADT":"2013-07-31","DY":13,"ADY":13,"AVISIT":"Week 2","AVISITN":2,"ATARGDY":15,"BASE":62,"ABLFL":null,"CHG":3,"PCHG":4.8387,"ANL01FL":null,"DTYPE":null,"ANL02FL":null,"TRTP":"Xanomeline High Dose","TRT01P":"Xanomeline High Dose","TRT01PN":null,"TRT01A":"Xanomeline High Dose","SITEGR1":900,"SITEID":701,"TRTSDT":"2013-07-19","TRTEDT":"2014-01-14","ITTFL":"Y","SAFFL":"Y","EFFFL":"N","COMPLFL":"Y"},{"STUDYID":"CDISCPILOT01","USUBJID":"01-701-1028","PARAMCD":"PULSESU","PARAM":"Pulse Rate, Supine","ATPT":"SUPINE","AVAL":65,"AVALU":"BEATS/MIN","SRCVISIT":"WEEK 2","ADT":"2013-08-01","DY":14,"ADY":14,"AVISIT":"Week 2","AVISITN":2,"ATARGDY":15,"BASE":62,"ABLFL":null,"CHG":3,"PCHG":4.8387,"ANL01FL":"Y","DTYPE":null,"ANL02FL":"Y","TRTP":"Xanomeline High Dose","TRT01P":"Xanomeline High Dose","TRT01PN":null,"TRT01A":"Xanomeline High Dose","SITEGR1":900,"SITEID":701,"TRTSDT":"2013-07-19","TRTEDT":"2014-01-14","ITTFL":"Y","SAFFL":"Y","EFFFL":"N","COMPLFL":"Y"},{"STUDYID":"CDISCPILOT01","USUBJID":"01-701-1028","PARAMCD":"PULSEST","PARAM":"Pulse Rate, Standing","ATPT":"STANDING","AVAL":77,"AVALU":"BEATS/MIN","SRCVISIT":"WEEK 2","ADT":"2013-08-01","DY":14,"ADY":14,"AVISIT":"Week 2","AVISITN":2,"ATARGDY":15,"BASE":62,"ABLFL":null,"CHG":15,"PCHG":24.1935,"ANL01FL":"Y","DTYPE":null,"ANL02FL":"Y","TRTP":"Xanomeline High Dose","TRT01P":"Xanomeline High Dose","TRT01PN":null,"TRT01A":"Xanomeline High Dose","SITEGR1":900,"SITEID":701,"TRTSDT":"2013-07-19","TRTEDT":"2014-01-14","ITTFL":"Y","SAFFL":"Y","EFFFL":"N","COMPLFL":"Y"},{"STUDYID":"CDISCPILOT01","USUBJID":"01-701-1028","PARAMCD":"PULSEST","PARAM":"Pulse Rate, Standing","ATPT":"STANDING","AVAL":72,"AVALU":"BEATS/MIN","SRCVISIT":"WEEK 2","ADT":"2013-08-01","DY":14,"ADY":14,"AVISIT":"Week 2","AVISITN":2,"ATARGDY":15,"BASE":62,"ABLFL":null,"CHG":10,"PCHG":16.129,"ANL01FL":null,"DTYPE":null,"ANL02FL":null,"TRTP":"Xanomeline High Dose","TRT01P":"Xanomeline High Dose","TRT01PN":null,"TRT01A":"Xanomeline High Dose","SITEGR1":900,"SITEID":701,"TRTSDT":"2013-07-19","TRTEDT":"2014-01-14","ITTFL":"Y","SAFFL":"Y","EFFFL":"N","COMPLFL":"Y"},{"STUDYID":"CDISCPILOT01","USUBJID":"01-701-1028","PARAMCD":"PULSESU","PARAM":"Pulse Rate, Supine","ATPT":"SUPINE","AVAL":68,"AVALU":"BEATS/MIN","SRCVISIT":"WEEK 4","ADT":"2013-08-14","DY":27,"ADY":27,"AVISIT":"Week 4","AVISITN":4,"ATARGDY":29,"BASE":62,"ABLFL":null,"CHG":6,"PCHG":9.6774,"ANL01FL":null,"DTYPE":null,"ANL02FL":null,"TRTP":"Xanomeline High Dose","TRT01P":"Xanomeline High Dose","TRT01PN":null,"TRT01A":"Xanomeline High Dose","SITEGR1":900,"SITEID":701,"TRTSDT":"2013-07-19","TRTEDT":"2014-01-14","ITTFL":"Y","SAFFL":"Y","EFFFL":"N","COMPLFL":"Y"},{"STUDYID":"CDISCPILOT01","USUBJID":"01-701-1028","PARAMCD":"PULSEST","PARAM":"Pulse Rate, Standing","ATPT":"STANDING","AVAL":81,"AVALU":"BEATS/MIN","SRCVISIT":"WEEK 4","ADT":"2013-08-14","DY":27,"ADY":27,"AVISIT":"Week 4","AVISITN":4,"ATARGDY":29,"BASE":62,"ABLFL":null,"CHG":19,"PCHG":30.6452,"ANL01FL":null,"DTYPE":null,"ANL02FL":null,"TRTP":"Xanomeline High Dose","TRT01P":"Xanomeline High Dose","TRT01PN":null,"TRT01A":"Xanomeline High Dose","SITEGR1":900,"SITEID":701,"TRTSDT":"2013-07-19","TRTEDT":"2014-01-14","ITTFL":"Y","SAFFL":"Y","EFFFL":"N","COMPLFL":"Y"},{"STUDYID":"CDISCPILOT01","USUBJID":"01-701-1028","PARAMCD":"PULSEST","PARAM":"Pulse Rate, Standing","ATPT":"STANDING","AVAL":76,"AVALU":"BEATS/MIN","SRCVISIT":"WEEK 4","ADT":"2013-08-14","DY":27,"ADY":27,"AVISIT":"Week 4","AVISITN":4,"ATARGDY":29,"BASE":62,"ABLFL":null,"CHG":14,"PCHG":22.5806,"ANL01FL":null,"DTYPE":null,"ANL02FL":null,"TRTP":"Xanomeline High Dose","TRT01P":"Xanomeline High Dose","TRT01PN":null,"TRT01A":"Xanomeline High Dose","SITEGR1":900,"SITEID":701,"TRTSDT":"2013-07-19","TRTEDT":"2014-01-14","ITTFL":"Y","SAFFL":"Y","EFFFL":"N","COMPLFL":"Y"},{"STUDYID":"CDISCPILOT01","USUBJID":"01-701-1028","PARAMCD":"PULSESU","PARAM":"Pulse Rate, Supine","ATPT":"SUPINE","AVAL":63,"AVALU":"BEATS/MIN","SRCVISIT":"AMBUL ECG REMOVAL","ADT":"2013-08-16","DY":29,"ADY":29,"AVISIT":"Week 4","AVISITN":4,"ATARGDY":29,"BASE":62,"ABLFL":null,"CHG":1,"PCHG":1.6129,"ANL01FL":"Y","DTYPE":null,"ANL02FL":"Y","TRTP":"Xanomeline High Dose","TRT01P":"Xanomeline High Dose","TRT01PN":null,"TRT01A":"Xanomeline High Dose","SITEGR1":900,"SITEID":701,"TRTSDT":"2013-07-19","TRTEDT":"2014-01-14","ITTFL":"Y","SAFFL":"Y","EFFFL":"N","COMPLFL":"Y"},{"STUDYID":"CDISCPILOT01","USUBJID":"01-701-1028","PARAMCD":"PULSEST","PARAM":"Pulse Rate, Standing","ATPT":"STANDING","AVAL":68,"AVALU":"BEATS/MIN","SRCVISIT":"AMBUL ECG REMOVAL","ADT":"2013-08-16","DY":29,"ADY":29,"AVISIT":"Week 4","AVISITN":4,"ATARGDY":29,"BASE":62,"ABLFL":null,"CHG":6,"PCHG":9.6774,"ANL01FL":"Y","DTYPE":null,"ANL02FL":"Y","TRTP":"Xanomeline High Dose","TRT01P":"Xanomeline High Dose","TRT01PN":null,"TRT01A":"Xanomeline High Dose","SITEGR1":900,"SITEID":701,"TRTSDT":"2013-07-19","TRTEDT":"2014-01-14","ITTFL":"Y","SAFFL":"Y","EFFFL":"N","COMPLFL":"Y"},{"STUDYID":"CDISCPILOT01","USUBJID":"01-701-1028","PARAMCD":"PULSEST","PARAM":"Pulse Rate, Standing","ATPT":"STANDING","AVAL":70,"AVALU":"BEATS/MIN","SRCVISIT":"AMBUL ECG REMOVAL","ADT":"2013-08-16","DY":29,"ADY":29,"AVISIT":"Week 4","AVISITN":4,"ATARGDY":29,"BASE":62,"ABLFL":null,"CHG":8,"PCHG":12.9032,"ANL01FL":null,"DTYPE":null,"ANL02FL":null,"TRTP":"Xanomeline High Dose","TRT01P":"Xanomeline High Dose","TRT01PN":null,"TRT01A":"Xanomeline High Dose","SITEGR1":900,"SITEID":701,"TRTSDT":"2013-07-19","TRTEDT":"2014-01-14","ITTFL":"Y","SAFFL":"Y","EFFFL":"N","COMPLFL":"Y"},{"STUDYID":"CDISCPILOT01","USUBJID":"01-701-1028","PARAMCD":"PULSESU","PARAM":"Pulse Rate, Supine","ATPT":"SUPINE","AVAL":56,"AVALU":"BEATS/MIN","SRCVISIT":"WEEK 6","ADT":"2013-08-29","DY":42,"ADY":42,"AVISIT":"Week 6","AVISITN":6,"ATARGDY":43,"BASE":62,"ABLFL":null,"CHG":-6,"PCHG":-9.6774,"ANL01FL":"Y","DTYPE":null,"ANL02FL":"Y","TRTP":"Xanomeline High Dose","TRT01P":"Xanomeline High Dose","TRT01PN":null,"TRT01A":"Xanomeline High Dose","SITEGR1":900,"SITEID":701,"TRTSDT":"2013-07-19","TRTEDT":"2014-01-14","ITTFL":"Y","SAFFL":"Y","EFFFL":"N","COMPLFL":"Y"},{"STUDYID":"CDISCPILOT01","USUBJID":"01-701-1028","PARAMCD":"PULSEST","PARAM":"Pulse Rate, Standing","ATPT":"STANDING","AVAL":60,"AVALU":"BEATS/MIN","SRCVISIT":"WEEK 6","ADT":"2013-08-29","DY":42,"ADY":42,"AVISIT":"Week 6","AVISITN":6,"ATARGDY":43,"BASE":62,"ABLFL":null,"CHG":-2,"PCHG":-3.2258,"ANL01FL":"Y","DTYPE":null,"ANL02FL":"Y","TRTP":"Xanomeline High Dose","TRT01P":"Xanomeline High Dose","TRT01PN":null,"TRT01A":"Xanomeline High Dose","SITEGR1":900,"SITEID":701,"TRTSDT":"2013-07-19","TRTEDT":"2014-01-14","ITTFL":"Y","SAFFL":"Y","EFFFL":"N","COMPLFL":"Y"},{"STUDYID":"CDISCPILOT01","USUBJID":"01-701-1028","PARAMCD":"PULSEST","PARAM":"Pulse Rate, Standing","ATPT":"STANDING","AVAL":62,"AVALU":"BEATS/MIN","SRCVISIT":"WEEK 6","ADT":"2013-08-29","DY":42,"ADY":42,"AVISIT":"Week 6","AVISITN":6,"ATARGDY":43,"BASE":62,"ABLFL":null,"CHG":0,"PCHG":0,"ANL01FL":null,"DTYPE":null,"ANL02FL":null,"TRTP":"Xanomeline High Dose","TRT01P":"Xanomeline High Dose","TRT01PN":null,"TRT01A":"Xanomeline High Dose","SITEGR1":900,"SITEID":701,"TRTSDT":"2013-07-19","TRTEDT":"2014-01-14","ITTFL":"Y","SAFFL":"Y","EFFFL":"N","COMPLFL":"Y"},{"STUDYID":"CDISCPILOT01","USUBJID":"01-701-1028","PARAMCD":"PULSESU","PARAM":"Pulse Rate, Supine","ATPT":"SUPINE","AVAL":67,"AVALU":"BEATS/MIN","SRCVISIT":"WEEK 8","ADT":"2013-09-10","DY":54,"ADY":54,"AVISIT":"Week 8","AVISITN":8,"ATARGDY":57,"BASE":62,"ABLFL":null,"CHG":5,"PCHG":8.0645,"ANL01FL":"Y","DTYPE":null,"ANL02FL":"Y","TRTP":"Xanomeline High Dose","TRT01P":"Xanomeline High Dose","TRT01PN":null,"TRT01A":"Xanomeline High Dose","SITEGR1":900,"SITEID":701,"TRTSDT":"2013-07-19","TRTEDT":"2014-01-14","ITTFL":"Y","SAFFL":"Y","EFFFL":"N","COMPLFL":"Y"},{"STUDYID":"CDISCPILOT01","USUBJID":"01-701-1028","PARAMCD":"PULSEST","PARAM":"Pulse Rate, Standing","ATPT":"STANDING","AVAL":76,"AVALU":"BEATS/MIN","SRCVISIT":"WEEK 8","ADT":"2013-09-10","DY":54,"ADY":54,"AVISIT":"Week 8","AVISITN":8,"ATARGDY":57,"BASE":62,"ABLFL":null,"CHG":14,"PCHG":22.5806,"ANL01FL":"Y","DTYPE":null,"ANL02FL":"Y","TRTP":"Xanomeline High Dose","TRT01P":"Xanomeline High Dose","TRT01PN":null,"TRT01A":"Xanomeline High Dose","SITEGR1":900,"SITEID":701,"TRTSDT":"2013-07-19","TRTEDT":"2014-01-14","ITTFL":"Y","SAFFL":"Y","EFFFL":"N","COMPLFL":"Y"},{"STUDYID":"CDISCPILOT01","USUBJID":"01-701-1028","PARAMCD":"PULSEST","PARAM":"Pulse Rate, Standing","ATPT":"STANDING","AVAL":81,"AVALU":"BEATS/MIN","SRCVISIT":"WEEK 8","ADT":"2013-09-10","DY":54,"ADY":54,"AVISIT":"Week 8","AVISITN":8,"ATARGDY":57,"BASE":62,"ABLFL":null,"CHG":19,"PCHG":30.6452,"ANL01FL":null,"DTYPE":null,"ANL02FL":null,"TRTP":"Xanomeline High Dose","TRT01P":"Xanomeline High Dose","TRT01PN":null,"TRT01A":"Xanomeline High Dose","SITEGR1":900,"SITEID":701,"TRTSDT":"2013-07-19","TRTEDT":"2014-01-14","ITTFL":"Y","SAFFL":"Y","EFFFL":"N","COMPLFL":"Y"},{"STUDYID":"CDISCPILOT01","USUBJID":"01-701-1028","PARAMCD":"PULSESU","PARAM":"Pulse Rate, Supine","ATPT":"SUPINE","AVAL":61,"AVALU":"BEATS/MIN","SRCVISIT":"WEEK 12","ADT":"2013-10-09","DY":83,"ADY":83,"AVISIT":"Week 12","AVISITN":12,"ATARGDY":85,"BASE":62,"ABLFL":null,"CHG":-1,"PCHG":-1.6129,"ANL01FL":"Y","DTYPE":null,"ANL02FL":"Y","TRTP":"Xanomeline High Dose","TRT01P":"Xanomeline High Dose","TRT01PN":null,"TRT01A":"Xanomeline High Dose","SITEGR1":900,"SITEID":701,"TRTSDT":"2013-07-19","TRTEDT":"2014-01-14","ITTFL":"Y","SAFFL":"Y","EFFFL":"N","COMPLFL":"Y"},{"STUDYID":"CDISCPILOT01","USUBJID":"01-701-1028","PARAMCD":"PULSEST","PARAM":"Pulse Rate, Standing","ATPT":"STANDING","AVAL":64,"AVALU":"BEATS/MIN","SRCVISIT":"WEEK 12","ADT":"2013-10-09","DY":83,"ADY":83,"AVISIT":"Week 12","AVISITN":12,"ATARGDY":85,"BASE":62,"ABLFL":null,"CHG":2,"PCHG":3.2258,"ANL01FL":"Y","DTYPE":null,"ANL02FL":"Y","TRTP":"Xanomeline High Dose","TRT01P":"Xanomeline High Dose","TRT01PN":null,"TRT01A":"Xanomeline High Dose","SITEGR1":900,"SITEID":701,"TRTSDT":"2013-07-19","TRTEDT":"2014-01-14","ITTFL":"Y","SAFFL":"Y","EFFFL":"N","COMPLFL":"Y"},{"STUDYID":"CDISCPILOT01","USUBJID":"01-701-1028","PARAMCD":"PULSEST","PARAM":"Pulse Rate, Standing","ATPT":"STANDING","AVAL":70,"AVALU":"BEATS/MIN","SRCVISIT":"WEEK 12","ADT":"2013-10-09","DY":83,"ADY":83,"AVISIT":"Week 12","AVISITN":12,"ATARGDY":85,"BASE":62,"ABLFL":null,"CHG":8,"PCHG":12.9032,"ANL01FL":null,"DTYPE":null,"ANL02FL":null,"TRTP":"Xanomeline High Dose","TRT01P":"Xanomeline High Dose","TRT01PN":null,"TRT01A":"Xanomeline High Dose","SITEGR1":900,"SITEID":701,"TRTSDT":"2013-07-19","TRTEDT":"2014-01-14","ITTFL":"Y","SAFFL":"Y","EFFFL":"N","COMPLFL":"Y"},{"STUDYID":"CDISCPILOT01","USUBJID":"01-701-1028","PARAMCD":"PULSESU","PARAM":"Pulse Rate, Supine","ATPT":"SUPINE","AVAL":60,"AVALU":"BEATS/MIN","SRCVISIT":"WEEK 16","ADT":"2013-11-06","DY":111,"ADY":111,"AVISIT":"Week 16","AVISITN":16,"ATARGDY":113,"BASE":62,"ABLFL":null,"CHG":-2,"PCHG":-3.2258,"ANL01FL":"Y","DTYPE":null,"ANL02FL":"Y","TRTP":"Xanomeline High Dose","TRT01P":"Xanomeline High Dose","TRT01PN":null,"TRT01A":"Xanomeline High Dose","SITEGR1":900,"SITEID":701,"TRTSDT":"2013-07-19","TRTEDT":"2014-01-14","ITTFL":"Y","SAFFL":"Y","EFFFL":"N","COMPLFL":"Y"},{"STUDYID":"CDISCPILOT01","USUBJID":"01-701-1028","PARAMCD":"PULSEST","PARAM":"Pulse Rate, Standing","ATPT":"STANDING","AVAL":70,"AVALU":"BEATS/MIN","SRCVISIT":"WEEK 16","ADT":"2013-11-06","DY":111,"ADY":111,"AVISIT":"Week 16","AVISITN":16,"ATARGDY":113,"BASE":62,"ABLFL":null,"CHG":8,"PCHG":12.9032,"ANL01FL":"Y","DTYPE":null,"ANL02FL":"Y","TRTP":"Xanomeline High Dose","TRT01P":"Xanomeline High Dose","TRT01PN":null,"TRT01A":"Xanomeline High Dose","SITEGR1":900,"SITEID":701,"TRTSDT":"2013-07-19","TRTEDT":"2014-01-14","ITTFL":"Y","SAFFL":"Y","EFFFL":"N","COMPLFL":"Y"},{"STUDYID":"CDISCPILOT01","USUBJID":"01-701-1028","PARAMCD":"PULSEST","PARAM":"Pulse Rate, Standing","ATPT":"STANDING","AVAL":69,"AVALU":"BEATS/MIN","SRCVISIT":"WEEK 16","ADT":"2013-11-06","DY":111,"ADY":111,"AVISIT":"Week 16","AVISITN":16,"ATARGDY":113,"BASE":62,"ABLFL":null,"CHG":7,"PCHG":11.2903,"ANL01FL":null,"DTYPE":null,"ANL02FL":null,"TRTP":"Xanomeline High Dose","TRT01P":"Xanomeline High Dose","TRT01PN":null,"TRT01A":"Xanomeline High Dose","SITEGR1":900,"SITEID":701,"TRTSDT":"2013-07-19","TRTEDT":"2014-01-14","ITTFL":"Y","SAFFL":"Y","EFFFL":"N","COMPLFL":"Y"},{"STUDYID":"CDISCPILOT01","USUBJID":"01-701-1028","PARAMCD":"PULSESU","PARAM":"Pulse Rate, Supine","ATPT":"SUPINE","AVAL":60,"AVALU":"BEATS/MIN","SRCVISIT":"WEEK 20","ADT":"2013-12-04","DY":139,"ADY":139,"AVISIT":"Week 20","AVISITN":20,"ATARGDY":141,"BASE":62,"ABLFL":null,"CHG":-2,"PCHG":-3.2258,"ANL01FL":"Y","DTYPE":null,"ANL02FL":"Y","TRTP":"Xanomeline High Dose","TRT01P":"Xanomeline High Dose","TRT01PN":null,"TRT01A":"Xanomeline High Dose","SITEGR1":900,"SITEID":701,"TRTSDT":"2013-07-19","TRTEDT":"2014-01-14","ITTFL":"Y","SAFFL":"Y","EFFFL":"N","COMPLFL":"Y"},{"STUDYID":"CDISCPILOT01","USUBJID":"01-701-1028","PARAMCD":"PULSEST","PARAM":"Pulse Rate, Standing","ATPT":"STANDING","AVAL":67,"AVALU":"BEATS/MIN","SRCVISIT":"WEEK 20","ADT":"2013-12-04","DY":139,"ADY":139,"AVISIT":"Week 20","AVISITN":20,"ATARGDY":141,"BASE":62,"ABLFL":null,"CHG":5,"PCHG":8.0645,"ANL01FL":"Y","DTYPE":null,"ANL02FL":"Y","TRTP":"Xanomeline High Dose","TRT01P":"Xanomeline High Dose","TRT01PN":null,"TRT01A":"Xanomeline High Dose","SITEGR1":900,"SITEID":701,"TRTSDT":"2013-07-19","TRTEDT":"2014-01-14","ITTFL":"Y","SAFFL":"Y","EFFFL":"N","COMPLFL":"Y"},{"STUDYID":"CDISCPILOT01","USUBJID":"01-701-1028","PARAMCD":"PULSEST","PARAM":"Pulse Rate, Standing","ATPT":"STANDING","AVAL":69,"AVALU":"BEATS/MIN","SRCVISIT":"WEEK 20","ADT":"2013-12-04","DY":139,"ADY":139,"AVISIT":"Week 20","AVISITN":20,"ATARGDY":141,"BASE":62,"ABLFL":null,"CHG":7,"PCHG":11.2903,"ANL01FL":null,"DTYPE":null,"ANL02FL":null,"TRTP":"Xanomeline High Dose","TRT01P":"Xanomeline High Dose","TRT01PN":null,"TRT01A":"Xanomeline High Dose","SITEGR1":900,"SITEID":701,"TRTSDT":"2013-07-19","TRTEDT":"2014-01-14","ITTFL":"Y","SAFFL":"Y","EFFFL":"N","COMPLFL":"Y"},{"STUDYID":"CDISCPILOT01","USUBJID":"01-701-1028","PARAMCD":"PULSESU","PARAM":"Pulse Rate, Supine","ATPT":"SUPINE","AVAL":62,"AVALU":"BEATS/MIN","SRCVISIT":"WEEK 24","ADT":"2014-01-06","DY":172,"ADY":172,"AVISIT":"Week 24","AVISITN":24,"ATARGDY":169,"BASE":62,"ABLFL":null,"CHG":0,"PCHG":0,"ANL01FL":"Y","DTYPE":null,"ANL02FL":"Y","TRTP":"Xanomeline High Dose","TRT01P":"Xanomeline High Dose","TRT01PN":null,"TRT01A":"Xanomeline High Dose","SITEGR1":900,"SITEID":701,"TRTSDT":"2013-07-19","TRTEDT":"2014-01-14","ITTFL":"Y","SAFFL":"Y","EFFFL":"N","COMPLFL":"Y"},{"STUDYID":"CDISCPILOT01","USUBJID":"01-701-1028","PARAMCD":"PULSEST","PARAM":"Pulse Rate, Standing","ATPT":"STANDING","AVAL":72,"AVALU":"BEATS/MIN","SRCVISIT":"WEEK 24","ADT":"2014-01-06","DY":172,"ADY":172,"AVISIT":"Week 24","AVISITN":24,"ATARGDY":169,"BASE":62,"ABLFL":null,"CHG":10,"PCHG":16.129,"ANL01FL":"Y","DTYPE":null,"ANL02FL":"Y","TRTP":"Xanomeline High Dose","TRT01P":"Xanomeline High Dose","TRT01PN":null,"TRT01A":"Xanomeline High Dose","SITEGR1":900,"SITEID":701,"TRTSDT":"2013-07-19","TRTEDT":"2014-01-14","ITTFL":"Y","SAFFL":"Y","EFFFL":"N","COMPLFL":"Y"},{"STUDYID":"CDISCPILOT01","USUBJID":"01-701-1028","PARAMCD":"PULSEST","PARAM":"Pulse Rate, Standing","ATPT":"STANDING","AVAL":73,"AVALU":"BEATS/MIN","SRCVISIT":"WEEK 24","ADT":"2014-01-06","DY":172,"ADY":172,"AVISIT":"Week 24","AVISITN":24,"ATARGDY":169,"BASE":62,"ABLFL":null,"CHG":11,"PCHG":17.7419,"ANL01FL":null,"DTYPE":null,"ANL02FL":null,"TRTP":"Xanomeline High Dose","TRT01P":"Xanomeline High Dose","TRT01PN":null,"TRT01A":"Xanomeline High Dose","SITEGR1":900,"SITEID":701,"TRTSDT":"2013-07-19","TRTEDT":"2014-01-14","ITTFL":"Y","SAFFL":"Y","EFFFL":"N","COMPLFL":"Y"},{"STUDYID":"CDISCPILOT01","USUBJID":"01-701-1028","PARAMCD":"PULSESU","PARAM":"Pulse Rate, Supine","ATPT":"SUPINE","AVAL":53,"AVALU":"BEATS/MIN","SRCVISIT":"WEEK 26","ADT":"2014-01-14","DY":180,"ADY":180,"AVISIT":"Week 26","AVISITN":26,"ATARGDY":183,"BASE":62,"ABLFL":null,"CHG":-9,"PCHG":-14.5161,"ANL01FL":"Y","DTYPE":null,"ANL02FL":"Y","TRTP":"Xanomeline High Dose","TRT01P":"Xanomeline High Dose","TRT01PN":null,"TRT01A":"Xanomeline High Dose","SITEGR1":900,"SITEID":701,"TRTSDT":"2013-07-19","TRTEDT":"2014-01-14","ITTFL":"Y","SAFFL":"Y","EFFFL":"N","COMPLFL":"Y"},{"STUDYID":"CDISCPILOT01","USUBJID":"01-701-1028","PARAMCD":"PULSEST","PARAM":"Pulse Rate, Standing","ATPT":"STANDING","AVAL":58,"AVALU":"BEATS/MIN","SRCVISIT":"WEEK 26","ADT":"2014-01-14","DY":180,"ADY":180,"AVISIT":"Week 26","AVISITN":26,"ATARGDY":183,"BASE":62,"ABLFL":null,"CHG":-4,"PCHG":-6.4516,"ANL01FL":"Y","DTYPE":null,"ANL02FL":"Y","TRTP":"Xanomeline High Dose","TRT01P":"Xanomeline High Dose","TRT01PN":null,"TRT01A":"Xanomeline High Dose","SITEGR1":900,"SITEID":701,"TRTSDT":"2013-07-19","TRTEDT":"2014-01-14","ITTFL":"Y","SAFFL":"Y","EFFFL":"N","COMPLFL":"Y"},{"STUDYID":"CDISCPILOT01","USUBJID":"01-701-1028","PARAMCD":"PULSEST","PARAM":"Pulse Rate, Standing","ATPT":"STANDING","AVAL":59,"AVALU":"BEATS/MIN","SRCVISIT":"WEEK 26","ADT":"2014-01-14","DY":180,"ADY":180,"AVISIT":"Week 26","AVISITN":26,"ATARGDY":183,"BASE":62,"ABLFL":null,"CHG":-3,"PCHG":-4.8387,"ANL01FL":null,"DTYPE":null,"ANL02FL":null,"TRTP":"Xanomeline High Dose","TRT01P":"Xanomeline High Dose","TRT01PN":null,"TRT01A":"Xanomeline High Dose","SITEGR1":900,"SITEID":701,"TRTSDT":"2013-07-19","TRTEDT":"2014-01-14","ITTFL":"Y","SAFFL":"Y","EFFFL":"N","COMPLFL":"Y"},{"STUDYID":"CDISCPILOT01","USUBJID":"01-701-1028","PARAMCD":"SYSBPSU","PARAM":"Systolic Blood Pressure, Supine","ATPT":"SUPINE","AVAL":143,"AVALU":"mmHg","SRCVISIT":"SCREENING 1","ADT":"2013-07-11","DY":-8,"ADY":-8,"AVISIT":"Baseline","AVISITN":0,"ATARGDY":1,"BASE":138,"ABLFL":null,"CHG":null,"PCHG":null,"ANL01FL":null,"DTYPE":null,"ANL02FL":null,"TRTP":"Xanomeline High Dose","TRT01P":"Xanomeline High Dose","TRT01PN":null,"TRT01A":"Xanomeline High Dose","SITEGR1":900,"SITEID":701,"TRTSDT":"2013-07-19","TRTEDT":"2014-01-14","ITTFL":"Y","SAFFL":"Y","EFFFL":"N","COMPLFL":"Y"},{"STUDYID":"CDISCPILOT01","USUBJID":"01-701-1028","PARAMCD":"SYSBPST","PARAM":"Systolic Blood Pressure, Standing","ATPT":"STANDING","AVAL":140,"AVALU":"mmHg","SRCVISIT":"SCREENING 1","ADT":"2013-07-11","DY":-8,"ADY":-8,"AVISIT":"Baseline","AVISITN":0,"ATARGDY":1,"BASE":145,"ABLFL":null,"CHG":null,"PCHG":null,"ANL01FL":null,"DTYPE":null,"ANL02FL":null,"TRTP":"Xanomeline High Dose","TRT01P":"Xanomeline High Dose","TRT01PN":null,"TRT01A":"Xanomeline High Dose","SITEGR1":900,"SITEID":701,"TRTSDT":"2013-07-19","TRTEDT":"2014-01-14","ITTFL":"Y","SAFFL":"Y","EFFFL":"N","COMPLFL":"Y"},{"STUDYID":"CDISCPILOT01","USUBJID":"01-701-1028","PARAMCD":"SYSBPST","PARAM":"Systolic Blood Pressure, Standing","ATPT":"STANDING","AVAL":132,"AVALU":"mmHg","SRCVISIT":"SCREENING 1","ADT":"2013-07-11","DY":-8,"ADY":-8,"AVISIT":"Baseline","AVISITN":0,"ATARGDY":1,"BASE":145,"ABLFL":null,"CHG":null,"PCHG":null,"ANL01FL":null,"DTYPE":null,"ANL02FL":null,"TRTP":"Xanomeline High Dose","TRT01P":"Xanomeline High Dose","TRT01PN":null,"TRT01A":"Xanomeline High Dose","SITEGR1":900,"SITEID":701,"TRTSDT":"2013-07-19","TRTEDT":"2014-01-14","ITTFL":"Y","SAFFL":"Y","EFFFL":"N","COMPLFL":"Y"},{"STUDYID":"CDISCPILOT01","USUBJID":"01-701-1028","PARAMCD":"SYSBPSU","PARAM":"Systolic Blood Pressure, Supine","ATPT":"SUPINE","AVAL":122,"AVALU":"mmHg","SRCVISIT":"SCREENING 2","ADT":"2013-07-17","DY":-2,"ADY":-2,"AVISIT":"Baseline","AVISITN":0,"ATARGDY":1,"BASE":138,"ABLFL":null,"CHG":null,"PCHG":null,"ANL01FL":null,"DTYPE":null,"ANL02FL":null,"TRTP":"Xanomeline High Dose","TRT01P":"Xanomeline High Dose","TRT01PN":null,"TRT01A":"Xanomeline High Dose","SITEGR1":900,"SITEID":701,"TRTSDT":"2013-07-19","TRTEDT":"2014-01-14","ITTFL":"Y","SAFFL":"Y","EFFFL":"N","COMPLFL":"Y"},{"STUDYID":"CDISCPILOT01","USUBJID":"01-701-1028","PARAMCD":"SYSBPST","PARAM":"Systolic Blood Pressure, Standing","ATPT":"STANDING","AVAL":142,"AVALU":"mmHg","SRCVISIT":"SCREENING 2","ADT":"2013-07-17","DY":-2,"ADY":-2,"AVISIT":"Baseline","AVISITN":0,"ATARGDY":1,"BASE":145,"ABLFL":null,"CHG":null,"PCHG":null,"ANL01FL":null,"DTYPE":null,"ANL02FL":null,"TRTP":"Xanomeline High Dose","TRT01P":"Xanomeline High Dose","TRT01PN":null,"TRT01A":"Xanomeline High Dose","SITEGR1":900,"SITEID":701,"TRTSDT":"2013-07-19","TRTEDT":"2014-01-14","ITTFL":"Y","SAFFL":"Y","EFFFL":"N","COMPLFL":"Y"},{"STUDYID":"CDISCPILOT01","USUBJID":"01-701-1028","PARAMCD":"SYSBPST","PARAM":"Systolic Blood Pressure, Standing","ATPT":"STANDING","AVAL":132,"AVALU":"mmHg","SRCVISIT":"SCREENING 2","ADT":"2013-07-17","DY":-2,"ADY":-2,"AVISIT":"Baseline","AVISITN":0,"ATARGDY":1,"BASE":145,"ABLFL":null,"CHG":null,"PCHG":null,"ANL01FL":null,"DTYPE":null,"ANL02FL":null,"TRTP":"Xanomeline High Dose","TRT01P":"Xanomeline High Dose","TRT01PN":null,"TRT01A":"Xanomeline High Dose","SITEGR1":900,"SITEID":701,"TRTSDT":"2013-07-19","TRTEDT":"2014-01-14","ITTFL":"Y","SAFFL":"Y","EFFFL":"N","COMPLFL":"Y"},{"STUDYID":"CDISCPILOT01","USUBJID":"01-701-1028","PARAMCD":"SYSBPSU","PARAM":"Systolic Blood Pressure, Supine","ATPT":"SUPINE","AVAL":138,"AVALU":"mmHg","SRCVISIT":"BASELINE","ADT":"2013-07-19","DY":1,"ADY":1,"AVISIT":"Baseline","AVISITN":0,"ATARGDY":1,"BASE":138,"ABLFL":"Y","CHG":null,"PCHG":null,"ANL01FL":"Y","DTYPE":null,"ANL02FL":"Y","TRTP":"Xanomeline High Dose","TRT01P":"Xanomeline High Dose","TRT01PN":null,"TRT01A":"Xanomeline High Dose","SITEGR1":900,"SITEID":701,"TRTSDT":"2013-07-19","TRTEDT":"2014-01-14","ITTFL":"Y","SAFFL":"Y","EFFFL":"N","COMPLFL":"Y"},{"STUDYID":"CDISCPILOT01","USUBJID":"01-701-1028","PARAMCD":"SYSBPST","PARAM":"Systolic Blood Pressure, Standing","ATPT":"STANDING","AVAL":145,"AVALU":"mmHg","SRCVISIT":"BASELINE","ADT":"2013-07-19","DY":1,"ADY":1,"AVISIT":"Baseline","AVISITN":0,"ATARGDY":1,"BASE":145,"ABLFL":"Y","CHG":null,"PCHG":null,"ANL01FL":"Y","DTYPE":null,"ANL02FL":"Y","TRTP":"Xanomeline High Dose","TRT01P":"Xanomeline High Dose","TRT01PN":null,"TRT01A":"Xanomeline High Dose","SITEGR1":900,"SITEID":701,"TRTSDT":"2013-07-19","TRTEDT":"2014-01-14","ITTFL":"Y","SAFFL":"Y","EFFFL":"N","COMPLFL":"Y"},{"STUDYID":"CDISCPILOT01","USUBJID":"01-701-1028","PARAMCD":"SYSBPST","PARAM":"Systolic Blood Pressure, Standing","ATPT":"STANDING","AVAL":139,"AVALU":"mmHg","SRCVISIT":"BASELINE","ADT":"2013-07-19","DY":1,"ADY":1,"AVISIT":"Baseline","AVISITN":0,"ATARGDY":1,"BASE":145,"ABLFL":"Y","CHG":null,"PCHG":null,"ANL01FL":null,"DTYPE":null,"ANL02FL":null,"TRTP":"Xanomeline High Dose","TRT01P":"Xanomeline High Dose","TRT01PN":null,"TRT01A":"Xanomeline High Dose","SITEGR1":900,"SITEID":701,"TRTSDT":"2013-07-19","TRTEDT":"2014-01-14","ITTFL":"Y","SAFFL":"Y","EFFFL":"N","COMPLFL":"Y"},{"STUDYID":"CDISCPILOT01","USUBJID":"01-701-1028","PARAMCD":"SYSBPSU","PARAM":"Systolic Blood Pressure, Supine","ATPT":"SUPINE","AVAL":138,"AVALU":"mmHg","SRCVISIT":"AMBUL ECG PLACEMENT","ADT":"2013-07-31","DY":13,"ADY":13,"AVISIT":"Week 2","AVISITN":2,"ATARGDY":15,"BASE":138,"ABLFL":null,"CHG":0,"PCHG":0,"ANL01FL":null,"DTYPE":null,"ANL02FL":null,"TRTP":"Xanomeline High Dose","TRT01P":"Xanomeline High Dose","TRT01PN":null,"TRT01A":"Xanomeline High Dose","SITEGR1":900,"SITEID":701,"TRTSDT":"2013-07-19","TRTEDT":"2014-01-14","ITTFL":"Y","SAFFL":"Y","EFFFL":"N","COMPLFL":"Y"},{"STUDYID":"CDISCPILOT01","USUBJID":"01-701-1028","PARAMCD":"SYSBPST","PARAM":"Systolic Blood Pressure, Standing","ATPT":"STANDING","AVAL":137,"AVALU":"mmHg","SRCVISIT":"AMBUL ECG PLACEMENT","ADT":"2013-07-31","DY":13,"ADY":13,"AVISIT":"Week 2","AVISITN":2,"ATARGDY":15,"BASE":145,"ABLFL":null,"CHG":-8,"PCHG":-5.5172,"ANL01FL":null,"DTYPE":null,"ANL02FL":null,"TRTP":"Xanomeline High Dose","TRT01P":"Xanomeline High Dose","TRT01PN":null,"TRT01A":"Xanomeline High Dose","SITEGR1":900,"SITEID":701,"TRTSDT":"2013-07-19","TRTEDT":"2014-01-14","ITTFL":"Y","SAFFL":"Y","EFFFL":"N","COMPLFL":"Y"},{"STUDYID":"CDISCPILOT01","USUBJID":"01-701-1028","PARAMCD":"SYSBPST","PARAM":"Systolic Blood Pressure, Standing","ATPT":"STANDING","AVAL":145,"AVALU":"mmHg","SRCVISIT":"AMBUL ECG PLACEMENT","ADT":"2013-07-31","DY":13,"ADY":13,"AVISIT":"Week 2","AVISITN":2,"ATARGDY":15,"BASE":145,"ABLFL":null,"CHG":0,"PCHG":0,"ANL01FL":null,"DTYPE":null,"ANL02FL":null,"TRTP":"Xanomeline High Dose","TRT01P":"Xanomeline High Dose","TRT01PN":null,"TRT01A":"Xanomeline High Dose","SITEGR1":900,"SITEID":701,"TRTSDT":"2013-07-19","TRTEDT":"2014-01-14","ITTFL":"Y","SAFFL":"Y","EFFFL":"N","COMPLFL":"Y"},{"STUDYID":"CDISCPILOT01","USUBJID":"01-701-1028","PARAMCD":"SYSBPSU","PARAM":"Systolic Blood Pressure, Supine","ATPT":"SUPINE","AVAL":134,"AVALU":"mmHg","SRCVISIT":"WEEK 2","ADT":"2013-08-01","DY":14,"ADY":14,"AVISIT":"Week 2","AVISITN":2,"ATARGDY":15,"BASE":138,"ABLFL":null,"CHG":-4,"PCHG":-2.8986,"ANL01FL":"Y","DTYPE":null,"ANL02FL":"Y","TRTP":"Xanomeline High Dose","TRT01P":"Xanomeline High Dose","TRT01PN":null,"TRT01A":"Xanomeline High Dose","SITEGR1":900,"SITEID":701,"TRTSDT":"2013-07-19","TRTEDT":"2014-01-14","ITTFL":"Y","SAFFL":"Y","EFFFL":"N","COMPLFL":"Y"},{"STUDYID":"CDISCPILOT01","USUBJID":"01-701-1028","PARAMCD":"SYSBPST","PARAM":"Systolic Blood Pressure, Standing","ATPT":"STANDING","AVAL":138,"AVALU":"mmHg","SRCVISIT":"WEEK 2","ADT":"2013-08-01","DY":14,"ADY":14,"AVISIT":"Week 2","AVISITN":2,"ATARGDY":15,"BASE":145,"ABLFL":null,"CHG":-7,"PCHG":-4.8276,"ANL01FL":"Y","DTYPE":null,"ANL02FL":"Y","TRTP":"Xanomeline High Dose","TRT01P":"Xanomeline High Dose","TRT01PN":null,"TRT01A":"Xanomeline High Dose","SITEGR1":900,"SITEID":701,"TRTSDT":"2013-07-19","TRTEDT":"2014-01-14","ITTFL":"Y","SAFFL":"Y","EFFFL":"N","COMPLFL":"Y"},{"STUDYID":"CDISCPILOT01","USUBJID":"01-701-1028","PARAMCD":"SYSBPST","PARAM":"Systolic Blood Pressure, Standing","ATPT":"STANDING","AVAL":131,"AVALU":"mmHg","SRCVISIT":"WEEK 2","ADT":"2013-08-01","DY":14,"ADY":14,"AVISIT":"Week 2","AVISITN":2,"ATARGDY":15,"BASE":145,"ABLFL":null,"CHG":-14,"PCHG":-9.6552,"ANL01FL":null,"DTYPE":null,"ANL02FL":null,"TRTP":"Xanomeline High Dose","TRT01P":"Xanomeline High Dose","TRT01PN":null,"TRT01A":"Xanomeline High Dose","SITEGR1":900,"SITEID":701,"TRTSDT":"2013-07-19","TRTEDT":"2014-01-14","ITTFL":"Y","SAFFL":"Y","EFFFL":"N","COMPLFL":"Y"},{"STUDYID":"CDISCPILOT01","USUBJID":"01-701-1028","PARAMCD":"SYSBPSU","PARAM":"Systolic Blood Pressure, Supine","ATPT":"SUPINE","AVAL":130,"AVALU":"mmHg","SRCVISIT":"WEEK 4","ADT":"2013-08-14","DY":27,"ADY":27,"AVISIT":"Week 4","AVISITN":4,"ATARGDY":29,"BASE":138,"ABLFL":null,"CHG":-8,"PCHG":-5.7971,"ANL01FL":null,"DTYPE":null,"ANL02FL":null,"TRTP":"Xanomeline High Dose","TRT01P":"Xanomeline High Dose","TRT01PN":null,"TRT01A":"Xanomeline High Dose","SITEGR1":900,"SITEID":701,"TRTSDT":"2013-07-19","TRTEDT":"2014-01-14","ITTFL":"Y","SAFFL":"Y","EFFFL":"N","COMPLFL":"Y"},{"STUDYID":"CDISCPILOT01","USUBJID":"01-701-1028","PARAMCD":"SYSBPST","PARAM":"Systolic Blood Pressure, Standing","ATPT":"STANDING","AVAL":130,"AVALU":"mmHg","SRCVISIT":"WEEK 4","ADT":"2013-08-14","DY":27,"ADY":27,"AVISIT":"Week 4","AVISITN":4,"ATARGDY":29,"BASE":145,"ABLFL":null,"CHG":-15,"PCHG":-10.3448,"ANL01FL":null,"DTYPE":null,"ANL02FL":null,"TRTP":"Xanomeline High Dose","TRT01P":"Xanomeline High Dose","TRT01PN":null,"TRT01A":"Xanomeline High Dose","SITEGR1":900,"SITEID":701,"TRTSDT":"2013-07-19","TRTEDT":"2014-01-14","ITTFL":"Y","SAFFL":"Y","EFFFL":"N","COMPLFL":"Y"},{"STUDYID":"CDISCPILOT01","USUBJID":"01-701-1028","PARAMCD":"SYSBPST","PARAM":"Systolic Blood Pressure, Standing","ATPT":"STANDING","AVAL":138,"AVALU":"mmHg","SRCVISIT":"WEEK 4","ADT":"2013-08-14","DY":27,"ADY":27,"AVISIT":"Week 4","AVISITN":4,"ATARGDY":29,"BASE":145,"ABLFL":null,"CHG":-7,"PCHG":-4.8276,"ANL01FL":null,"DTYPE":null,"ANL02FL":null,"TRTP":"Xanomeline High Dose","TRT01P":"Xanomeline High Dose","TRT01PN":null,"TRT01A":"Xanomeline High Dose","SITEGR1":900,"SITEID":701,"TRTSDT":"2013-07-19","TRTEDT":"2014-01-14","ITTFL":"Y","SAFFL":"Y","EFFFL":"N","COMPLFL":"Y"},{"STUDYID":"CDISCPILOT01","USUBJID":"01-701-1028","PARAMCD":"SYSBPSU","PARAM":"Systolic Blood Pressure, Supine","ATPT":"SUPINE","AVAL":138,"AVALU":"mmHg","SRCVISIT":"AMBUL ECG REMOVAL","ADT":"2013-08-16","DY":29,"ADY":29,"AVISIT":"Week 4","AVISITN":4,"ATARGDY":29,"BASE":138,"ABLFL":null,"CHG":0,"PCHG":0,"ANL01FL":"Y","DTYPE":null,"ANL02FL":"Y","TRTP":"Xanomeline High Dose","TRT01P":"Xanomeline High Dose","TRT01PN":null,"TRT01A":"Xanomeline High Dose","SITEGR1":900,"SITEID":701,"TRTSDT":"2013-07-19","TRTEDT":"2014-01-14","ITTFL":"Y","SAFFL":"Y","EFFFL":"N","COMPLFL":"Y"},{"STUDYID":"CDISCPILOT01","USUBJID":"01-701-1028","PARAMCD":"SYSBPST","PARAM":"Systolic Blood Pressure, Standing","ATPT":"STANDING","AVAL":138,"AVALU":"mmHg","SRCVISIT":"AMBUL ECG REMOVAL","ADT":"2013-08-16","DY":29,"ADY":29,"AVISIT":"Week 4","AVISITN":4,"ATARGDY":29,"BASE":145,"ABLFL":null,"CHG":-7,"PCHG":-4.8276,"ANL01FL":"Y","DTYPE":null,"ANL02FL":"Y","TRTP":"Xanomeline High Dose","TRT01P":"Xanomeline High Dose","TRT01PN":null,"TRT01A":"Xanomeline High Dose","SITEGR1":900,"SITEID":701,"TRTSDT":"2013-07-19","TRTEDT":"2014-01-14","ITTFL":"Y","SAFFL":"Y","EFFFL":"N","COMPLFL":"Y"},{"STUDYID":"CDISCPILOT01","USUBJID":"01-701-1028","PARAMCD":"SYSBPST","PARAM":"Systolic Blood Pressure, Standing","ATPT":"STANDING","AVAL":146,"AVALU":"mmHg","SRCVISIT":"AMBUL ECG REMOVAL","ADT":"2013-08-16","DY":29,"ADY":29,"AVISIT":"Week 4","AVISITN":4,"ATARGDY":29,"BASE":145,"ABLFL":null,"CHG":1,"PCHG":0.6897,"ANL01FL":null,"DTYPE":null,"ANL02FL":null,"TRTP":"Xanomeline High Dose","TRT01P":"Xanomeline High Dose","TRT01PN":null,"TRT01A":"Xanomeline High Dose","SITEGR1":900,"SITEID":701,"TRTSDT":"2013-07-19","TRTEDT":"2014-01-14","ITTFL":"Y","SAFFL":"Y","EFFFL":"N","COMPLFL":"Y"},{"STUDYID":"CDISCPILOT01","USUBJID":"01-701-1028","PARAMCD":"SYSBPSU","PARAM":"Systolic Blood Pressure, Supine","ATPT":"SUPINE","AVAL":131,"AVALU":"mmHg","SRCVISIT":"WEEK 6","ADT":"2013-08-29","DY":42,"ADY":42,"AVISIT":"Week 6","AVISITN":6,"ATARGDY":43,"BASE":138,"ABLFL":null,"CHG":-7,"PCHG":-5.0725,"ANL01FL":"Y","DTYPE":null,"ANL02FL":"Y","TRTP":"Xanomeline High Dose","TRT01P":"Xanomeline High Dose","TRT01PN":null,"TRT01A":"Xanomeline High Dose","SITEGR1":900,"SITEID":701,"TRTSDT":"2013-07-19","TRTEDT":"2014-01-14","ITTFL":"Y","SAFFL":"Y","EFFFL":"N","COMPLFL":"Y"},{"STUDYID":"CDISCPILOT01","USUBJID":"01-701-1028","PARAMCD":"SYSBPST","PARAM":"Systolic Blood Pressure, Standing","ATPT":"STANDING","AVAL":131,"AVALU":"mmHg","SRCVISIT":"WEEK 6","ADT":"2013-08-29","DY":42,"ADY":42,"AVISIT":"Week 6","AVISITN":6,"ATARGDY":43,"BASE":145,"ABLFL":null,"CHG":-14,"PCHG":-9.6552,"ANL01FL":"Y","DTYPE":null,"ANL02FL":"Y","TRTP":"Xanomeline High Dose","TRT01P":"Xanomeline High Dose","TRT01PN":null,"TRT01A":"Xanomeline High Dose","SITEGR1":900,"SITEID":701,"TRTSDT":"2013-07-19","TRTEDT":"2014-01-14","ITTFL":"Y","SAFFL":"Y","EFFFL":"N","COMPLFL":"Y"},{"STUDYID":"CDISCPILOT01","USUBJID":"01-701-1028","PARAMCD":"SYSBPST","PARAM":"Systolic Blood Pressure, Standing","ATPT":"STANDING","AVAL":132,"AVALU":"mmHg","SRCVISIT":"WEEK 6","ADT":"2013-08-29","DY":42,"ADY":42,"AVISIT":"Week 6","AVISITN":6,"ATARGDY":43,"BASE":145,"ABLFL":null,"CHG":-13,"PCHG":-8.9655,"ANL01FL":null,"DTYPE":null,"ANL02FL":null,"TRTP":"Xanomeline High Dose","TRT01P":"Xanomeline High Dose","TRT01PN":null,"TRT01A":"Xanomeline High Dose","SITEGR1":900,"SITEID":701,"TRTSDT":"2013-07-19","TRTEDT":"2014-01-14","ITTFL":"Y","SAFFL":"Y","EFFFL":"N","COMPLFL":"Y"},{"STUDYID":"CDISCPILOT01","USUBJID":"01-701-1028","PARAMCD":"SYSBPSU","PARAM":"Systolic Blood Pressure, Supine","ATPT":"SUPINE","AVAL":137,"AVALU":"mmHg","SRCVISIT":"WEEK 8","ADT":"2013-09-10","DY":54,"ADY":54,"AVISIT":"Week 8","AVISITN":8,"ATARGDY":57,"BASE":138,"ABLFL":null,"CHG":-1,"PCHG":-0.7246,"ANL01FL":"Y","DTYPE":null,"ANL02FL":"Y","TRTP":"Xanomeline High Dose","TRT01P":"Xanomeline High Dose","TRT01PN":null,"TRT01A":"Xanomeline High Dose","SITEGR1":900,"SITEID":701,"TRTSDT":"2013-07-19","TRTEDT":"2014-01-14","ITTFL":"Y","SAFFL":"Y","EFFFL":"N","COMPLFL":"Y"},{"STUDYID":"CDISCPILOT01","USUBJID":"01-701-1028","PARAMCD":"SYSBPST","PARAM":"Systolic Blood Pressure, Standing","ATPT":"STANDING","AVAL":146,"AVALU":"mmHg","SRCVISIT":"WEEK 8","ADT":"2013-09-10","DY":54,"ADY":54,"AVISIT":"Week 8","AVISITN":8,"ATARGDY":57,"BASE":145,"ABLFL":null,"CHG":1,"PCHG":0.6897,"ANL01FL":"Y","DTYPE":null,"ANL02FL":"Y","TRTP":"Xanomeline High Dose","TRT01P":"Xanomeline High Dose","TRT01PN":null,"TRT01A":"Xanomeline High Dose","SITEGR1":900,"SITEID":701,"TRTSDT":"2013-07-19","TRTEDT":"2014-01-14","ITTFL":"Y","SAFFL":"Y","EFFFL":"N","COMPLFL":"Y"},{"STUDYID":"CDISCPILOT01","USUBJID":"01-701-1028","PARAMCD":"SYSBPST","PARAM":"Systolic Blood Pressure, Standing","ATPT":"STANDING","AVAL":130,"AVALU":"mmHg","SRCVISIT":"WEEK 8","ADT":"2013-09-10","DY":54,"ADY":54,"AVISIT":"Week 8","AVISITN":8,"ATARGDY":57,"BASE":145,"ABLFL":null,"CHG":-15,"PCHG":-10.3448,"ANL01FL":null,"DTYPE":null,"ANL02FL":null,"TRTP":"Xanomeline High Dose","TRT01P":"Xanomeline High Dose","TRT01PN":null,"TRT01A":"Xanomeline High Dose","SITEGR1":900,"SITEID":701,"TRTSDT":"2013-07-19","TRTEDT":"2014-01-14","ITTFL":"Y","SAFFL":"Y","EFFFL":"N","COMPLFL":"Y"},{"STUDYID":"CDISCPILOT01","USUBJID":"01-701-1028","PARAMCD":"SYSBPSU","PARAM":"Systolic Blood Pressure, Supine","ATPT":"SUPINE","AVAL":128,"AVALU":"mmHg","SRCVISIT":"WEEK 12","ADT":"2013-10-09","DY":83,"ADY":83,"AVISIT":"Week 12","AVISITN":12,"ATARGDY":85,"BASE":138,"ABLFL":null,"CHG":-10,"PCHG":-7.2464,"ANL01FL":"Y","DTYPE":null,"ANL02FL":"Y","TRTP":"Xanomeline High Dose","TRT01P":"Xanomeline High Dose","TRT01PN":null,"TRT01A":"Xanomeline High Dose","SITEGR1":900,"SITEID":701,"TRTSDT":"2013-07-19","TRTEDT":"2014-01-14","ITTFL":"Y","SAFFL":"Y","EFFFL":"N","COMPLFL":"Y"},{"STUDYID":"CDISCPILOT01","USUBJID":"01-701-1028","PARAMCD":"SYSBPST","PARAM":"Systolic Blood Pressure, Standing","ATPT":"STANDING","AVAL":137,"AVALU":"mmHg","SRCVISIT":"WEEK 12","ADT":"2013-10-09","DY":83,"ADY":83,"AVISIT":"Week 12","AVISITN":12,"ATARGDY":85,"BASE":145,"ABLFL":null,"CHG":-8,"PCHG":-5.5172,"ANL01FL":"Y","DTYPE":null,"ANL02FL":"Y","TRTP":"Xanomeline High Dose","TRT01P":"Xanomeline High Dose","TRT01PN":null,"TRT01A":"Xanomeline High Dose","SITEGR1":900,"SITEID":701,"TRTSDT":"2013-07-19","TRTEDT":"2014-01-14","ITTFL":"Y","SAFFL":"Y","EFFFL":"N","COMPLFL":"Y"},{"STUDYID":"CDISCPILOT01","USUBJID":"01-701-1028","PARAMCD":"SYSBPST","PARAM":"Systolic Blood Pressure, Standing","ATPT":"STANDING","AVAL":138,"AVALU":"mmHg","SRCVISIT":"WEEK 12","ADT":"2013-10-09","DY":83,"ADY":83,"AVISIT":"Week 12","AVISITN":12,"ATARGDY":85,"BASE":145,"ABLFL":null,"CHG":-7,"PCHG":-4.8276,"ANL01FL":null,"DTYPE":null,"ANL02FL":null,"TRTP":"Xanomeline High Dose","TRT01P":"Xanomeline High Dose","TRT01PN":null,"TRT01A":"Xanomeline High Dose","SITEGR1":900,"SITEID":701,"TRTSDT":"2013-07-19","TRTEDT":"2014-01-14","ITTFL":"Y","SAFFL":"Y","EFFFL":"N","COMPLFL":"Y"},{"STUDYID":"CDISCPILOT01","USUBJID":"01-701-1028","PARAMCD":"SYSBPSU","PARAM":"Systolic Blood Pressure, Supine","ATPT":"SUPINE","AVAL":122,"AVALU":"mmHg","SRCVISIT":"WEEK 16","ADT":"2013-11-06","DY":111,"ADY":111,"AVISIT":"Week 16","AVISITN":16,"ATARGDY":113,"BASE":138,"ABLFL":null,"CHG":-16,"PCHG":-11.5942,"ANL01FL":"Y","DTYPE":null,"ANL02FL":"Y","TRTP":"Xanomeline High Dose","TRT01P":"Xanomeline High Dose","TRT01PN":null,"TRT01A":"Xanomeline High Dose","SITEGR1":900,"SITEID":701,"TRTSDT":"2013-07-19","TRTEDT":"2014-01-14","ITTFL":"Y","SAFFL":"Y","EFFFL":"N","COMPLFL":"Y"},{"STUDYID":"CDISCPILOT01","USUBJID":"01-701-1028","PARAMCD":"SYSBPST","PARAM":"Systolic Blood Pressure, Standing","ATPT":"STANDING","AVAL":130,"AVALU":"mmHg","SRCVISIT":"WEEK 16","ADT":"2013-11-06","DY":111,"ADY":111,"AVISIT":"Week 16","AVISITN":16,"ATARGDY":113,"BASE":145,"ABLFL":null,"CHG":-15,"PCHG":-10.3448,"ANL01FL":"Y","DTYPE":null,"ANL02FL":"Y","TRTP":"Xanomeline High Dose","TRT01P":"Xanomeline High Dose","TRT01PN":null,"TRT01A":"Xanomeline High Dose","SITEGR1":900,"SITEID":701,"TRTSDT":"2013-07-19","TRTEDT":"2014-01-14","ITTFL":"Y","SAFFL":"Y","EFFFL":"N","COMPLFL":"Y"},{"STUDYID":"CDISCPILOT01","USUBJID":"01-701-1028","PARAMCD":"SYSBPST","PARAM":"Systolic Blood Pressure, Standing","ATPT":"STANDING","AVAL":132,"AVALU":"mmHg","SRCVISIT":"WEEK 16","ADT":"2013-11-06","DY":111,"ADY":111,"AVISIT":"Week 16","AVISITN":16,"ATARGDY":113,"BASE":145,"ABLFL":null,"CHG":-13,"PCHG":-8.9655,"ANL01FL":null,"DTYPE":null,"ANL02FL":null,"TRTP":"Xanomeline High Dose","TRT01P":"Xanomeline High Dose","TRT01PN":null,"TRT01A":"Xanomeline High Dose","SITEGR1":900,"SITEID":701,"TRTSDT":"2013-07-19","TRTEDT":"2014-01-14","ITTFL":"Y","SAFFL":"Y","EFFFL":"N","COMPLFL":"Y"},{"STUDYID":"CDISCPILOT01","USUBJID":"01-701-1028","PARAMCD":"SYSBPSU","PARAM":"Systolic Blood Pressure, Supine","ATPT":"SUPINE","AVAL":129,"AVALU":"mmHg","SRCVISIT":"WEEK 20","ADT":"2013-12-04","DY":139,"ADY":139,"AVISIT":"Week 20","AVISITN":20,"ATARGDY":141,"BASE":138,"ABLFL":null,"CHG":-9,"PCHG":-6.5217,"ANL01FL":"Y","DTYPE":null,"ANL02FL":"Y","TRTP":"Xanomeline High Dose","TRT01P":"Xanomeline High Dose","TRT01PN":null,"TRT01A":"Xanomeline High Dose","SITEGR1":900,"SITEID":701,"TRTSDT":"2013-07-19","TRTEDT":"2014-01-14","ITTFL":"Y","SAFFL":"Y","EFFFL":"N","COMPLFL":"Y"},{"STUDYID":"CDISCPILOT01","USUBJID":"01-701-1028","PARAMCD":"SYSBPST","PARAM":"Systolic Blood Pressure, Standing","ATPT":"STANDING","AVAL":123,"AVALU":"mmHg","SRCVISIT":"WEEK 20","ADT":"2013-12-04","DY":139,"ADY":139,"AVISIT":"Week 20","AVISITN":20,"ATARGDY":141,"BASE":145,"ABLFL":null,"CHG":-22,"PCHG":-15.1724,"ANL01FL":"Y","DTYPE":null,"ANL02FL":"Y","TRTP":"Xanomeline High Dose","TRT01P":"Xanomeline High Dose","TRT01PN":null,"TRT01A":"Xanomeline High Dose","SITEGR1":900,"SITEID":701,"TRTSDT":"2013-07-19","TRTEDT":"2014-01-14","ITTFL":"Y","SAFFL":"Y","EFFFL":"N","COMPLFL":"Y"},{"STUDYID":"CDISCPILOT01","USUBJID":"01-701-1028","PARAMCD":"SYSBPST","PARAM":"Systolic Blood Pressure, Standing","ATPT":"STANDING","AVAL":131,"AVALU":"mmHg","SRCVISIT":"WEEK 20","ADT":"2013-12-04","DY":139,"ADY":139,"AVISIT":"Week 20","AVISITN":20,"ATARGDY":141,"BASE":145,"ABLFL":null,"CHG":-14,"PCHG":-9.6552,"ANL01FL":null,"DTYPE":null,"ANL02FL":null,"TRTP":"Xanomeline High Dose","TRT01P":"Xanomeline High Dose","TRT01PN":null,"TRT01A":"Xanomeline High Dose","SITEGR1":900,"SITEID":701,"TRTSDT":"2013-07-19","TRTEDT":"2014-01-14","ITTFL":"Y","SAFFL":"Y","EFFFL":"N","COMPLFL":"Y"},{"STUDYID":"CDISCPILOT01","USUBJID":"01-701-1028","PARAMCD":"SYSBPSU","PARAM":"Systolic Blood Pressure, Supine","ATPT":"SUPINE","AVAL":130,"AVALU":"mmHg","SRCVISIT":"WEEK 24","ADT":"2014-01-06","DY":172,"ADY":172,"AVISIT":"Week 24","AVISITN":24,"ATARGDY":169,"BASE":138,"ABLFL":null,"CHG":-8,"PCHG":-5.7971,"ANL01FL":"Y","DTYPE":null,"ANL02FL":"Y","TRTP":"Xanomeline High Dose","TRT01P":"Xanomeline High Dose","TRT01PN":null,"TRT01A":"Xanomeline High Dose","SITEGR1":900,"SITEID":701,"TRTSDT":"2013-07-19","TRTEDT":"2014-01-14","ITTFL":"Y","SAFFL":"Y","EFFFL":"N","COMPLFL":"Y"},{"STUDYID":"CDISCPILOT01","USUBJID":"01-701-1028","PARAMCD":"SYSBPST","PARAM":"Systolic Blood Pressure, Standing","ATPT":"STANDING","AVAL":133,"AVALU":"mmHg","SRCVISIT":"WEEK 24","ADT":"2014-01-06","DY":172,"ADY":172,"AVISIT":"Week 24","AVISITN":24,"ATARGDY":169,"BASE":145,"ABLFL":null,"CHG":-12,"PCHG":-8.2759,"ANL01FL":"Y","DTYPE":null,"ANL02FL":"Y","TRTP":"Xanomeline High Dose","TRT01P":"Xanomeline High Dose","TRT01PN":null,"TRT01A":"Xanomeline High Dose","SITEGR1":900,"SITEID":701,"TRTSDT":"2013-07-19","TRTEDT":"2014-01-14","ITTFL":"Y","SAFFL":"Y","EFFFL":"N","COMPLFL":"Y"},{"STUDYID":"CDISCPILOT01","USUBJID":"01-701-1028","PARAMCD":"SYSBPST","PARAM":"Systolic Blood Pressure, Standing","ATPT":"STANDING","AVAL":131,"AVALU":"mmHg","SRCVISIT":"WEEK 24","ADT":"2014-01-06","DY":172,"ADY":172,"AVISIT":"Week 24","AVISITN":24,"ATARGDY":169,"BASE":145,"ABLFL":null,"CHG":-14,"PCHG":-9.6552,"ANL01FL":null,"DTYPE":null,"ANL02FL":null,"TRTP":"Xanomeline High Dose","TRT01P":"Xanomeline High Dose","TRT01PN":null,"TRT01A":"Xanomeline High Dose","SITEGR1":900,"SITEID":701,"TRTSDT":"2013-07-19","TRTEDT":"2014-01-14","ITTFL":"Y","SAFFL":"Y","EFFFL":"N","COMPLFL":"Y"},{"STUDYID":"CDISCPILOT01","USUBJID":"01-701-1028","PARAMCD":"SYSBPSU","PARAM":"Systolic Blood Pressure, Supine","ATPT":"SUPINE","AVAL":131,"AVALU":"mmHg","SRCVISIT":"WEEK 26","ADT":"2014-01-14","DY":180,"ADY":180,"AVISIT":"Week 26","AVISITN":26,"ATARGDY":183,"BASE":138,"ABLFL":null,"CHG":-7,"PCHG":-5.0725,"ANL01FL":"Y","DTYPE":null,"ANL02FL":"Y","TRTP":"Xanomeline High Dose","TRT01P":"Xanomeline High Dose","TRT01PN":null,"TRT01A":"Xanomeline High Dose","SITEGR1":900,"SITEID":701,"TRTSDT":"2013-07-19","TRTEDT":"2014-01-14","ITTFL":"Y","SAFFL":"Y","EFFFL":"N","COMPLFL":"Y"},{"STUDYID":"CDISCPILOT01","USUBJID":"01-701-1028","PARAMCD":"SYSBPST","PARAM":"Systolic Blood Pressure, Standing","ATPT":"STANDING","AVAL":118,"AVALU":"mmHg","SRCVISIT":"WEEK 26","ADT":"2014-01-14","DY":180,"ADY":180,"AVISIT":"Week 26","AVISITN":26,"ATARGDY":183,"BASE":145,"ABLFL":null,"CHG":-27,"PCHG":-18.6207,"ANL01FL":"Y","DTYPE":null,"ANL02FL":"Y","TRTP":"Xanomeline High Dose","TRT01P":"Xanomeline High Dose","TRT01PN":null,"TRT01A":"Xanomeline High Dose","SITEGR1":900,"SITEID":701,"TRTSDT":"2013-07-19","TRTEDT":"2014-01-14","ITTFL":"Y","SAFFL":"Y","EFFFL":"N","COMPLFL":"Y"},{"STUDYID":"CDISCPILOT01","USUBJID":"01-701-1028","PARAMCD":"SYSBPST","PARAM":"Systolic Blood Pressure, Standing","ATPT":"STANDING","AVAL":131,"AVALU":"mmHg","SRCVISIT":"WEEK 26","ADT":"2014-01-14","DY":180,"ADY":180,"AVISIT":"Week 26","AVISITN":26,"ATARGDY":183,"BASE":145,"ABLFL":null,"CHG":-14,"PCHG":-9.6552,"ANL01FL":null,"DTYPE":null,"ANL02FL":null,"TRTP":"Xanomeline High Dose","TRT01P":"Xanomeline High Dose","TRT01PN":null,"TRT01A":"Xanomeline High Dose","SITEGR1":900,"SITEID":701,"TRTSDT":"2013-07-19","TRTEDT":"2014-01-14","ITTFL":"Y","SAFFL":"Y","EFFFL":"N","COMPLFL":"Y"},{"STUDYID":"CDISCPILOT01","USUBJID":"01-701-1028","PARAMCD":"TEMP","PARAM":"Temperature","ATPT":null,"AVAL":36.94,"AVALU":"C","SRCVISIT":"SCREENING 1","ADT":"2013-07-11","DY":-8,"ADY":-8,"AVISIT":"Baseline","AVISITN":0,"ATARGDY":1,"BASE":37,"ABLFL":null,"CHG":null,"PCHG":null,"ANL01FL":null,"DTYPE":null,"ANL02FL":null,"TRTP":"Xanomeline High Dose","TRT01P":"Xanomeline High Dose","TRT01PN":null,"TRT01A":"Xanomeline High Dose","SITEGR1":900,"SITEID":701,"TRTSDT":"2013-07-19","TRTEDT":"2014-01-14","ITTFL":"Y","SAFFL":"Y","EFFFL":"N","COMPLFL":"Y"},{"STUDYID":"CDISCPILOT01","USUBJID":"01-701-1028","PARAMCD":"TEMP","PARAM":"Temperature","ATPT":null,"AVAL":35.94,"AVALU":"C","SRCVISIT":"SCREENING 2","ADT":"2013-07-17","DY":-2,"ADY":-2,"AVISIT":"Baseline","AVISITN":0,"ATARGDY":1,"BASE":37,"ABLFL":null,"CHG":null,"PCHG":null,"ANL01FL":null,"DTYPE":null,"ANL02FL":null,"TRTP":"Xanomeline High Dose","TRT01P":"Xanomeline High Dose","TRT01PN":null,"TRT01A":"Xanomeline High Dose","SITEGR1":900,"SITEID":701,"TRTSDT":"2013-07-19","TRTEDT":"2014-01-14","ITTFL":"Y","SAFFL":"Y","EFFFL":"N","COMPLFL":"Y"},{"STUDYID":"CDISCPILOT01","USUBJID":"01-701-1028","PARAMCD":"TEMP","PARAM":"Temperature","ATPT":null,"AVAL":37,"AVALU":"C","SRCVISIT":"BASELINE","ADT":"2013-07-19","DY":1,"ADY":1,"AVISIT":"Baseline","AVISITN":0,"ATARGDY":1,"BASE":37,"ABLFL":"Y","CHG":null,"PCHG":null,"ANL01FL":"Y","DTYPE":null,"ANL02FL":"Y","TRTP":"Xanomeline High Dose","TRT01P":"Xanomeline High Dose","TRT01PN":null,"TRT01A":"Xanomeline High Dose","SITEGR1":900,"SITEID":701,"TRTSDT":"2013-07-19","TRTEDT":"2014-01-14","ITTFL":"Y","SAFFL":"Y","EFFFL":"N","COMPLFL":"Y"},{"STUDYID":"CDISCPILOT01","USUBJID":"01-701-1028","PARAMCD":"TEMP","PARAM":"Temperature","ATPT":null,"AVAL":36.78,"AVALU":"C","SRCVISIT":"AMBUL ECG PLACEMENT","ADT":"2013-07-31","DY":13,"ADY":13,"AVISIT":"Week 2","AVISITN":2,"ATARGDY":15,"BASE":37,"ABLFL":null,"CHG":-0.22,"PCHG":-0.5946,"ANL01FL":null,"DTYPE":null,"ANL02FL":null,"TRTP":"Xanomeline High Dose","TRT01P":"Xanomeline High Dose","TRT01PN":null,"TRT01A":"Xanomeline High Dose","SITEGR1":900,"SITEID":701,"TRTSDT":"2013-07-19","TRTEDT":"2014-01-14","ITTFL":"Y","SAFFL":"Y","EFFFL":"N","COMPLFL":"Y"},{"STUDYID":"CDISCPILOT01","USUBJID":"01-701-1028","PARAMCD":"TEMP","PARAM":"Temperature","ATPT":null,"AVAL":37.22,"AVALU":"C","SRCVISIT":"WEEK 2","ADT":"2013-08-01","DY":14,"ADY":14,"AVISIT":"Week 2","AVISITN":2,"ATARGDY":15,"BASE":37,"ABLFL":null,"CHG":0.22,"PCHG":0.5946,"ANL01FL":"Y","DTYPE":null,"ANL02FL":"Y","TRTP":"Xanomeline High Dose","TRT01P":"Xanomeline High Dose","TRT01PN":null,"TRT01A":"Xanomeline High Dose","SITEGR1":900,"SITEID":701,"TRTSDT":"2013-07-19","TRTEDT":"2014-01-14","ITTFL":"Y","SAFFL":"Y","EFFFL":"N","COMPLFL":"Y"},{"STUDYID":"CDISCPILOT01","USUBJID":"01-701-1028","PARAMCD":"TEMP","PARAM":"Temperature","ATPT":null,"AVAL":36.94,"AVALU":"C","SRCVISIT":"WEEK 4","ADT":"2013-08-14","DY":27,"ADY":27,"AVISIT":"Week 4","AVISITN":4,"ATARGDY":29,"BASE":37,"ABLFL":null,"CHG":-0.06,"PCHG":-0.1622,"ANL01FL":null,"DTYPE":null,"ANL02FL":null,"TRTP":"Xanomeline High Dose","TRT01P":"Xanomeline High Dose","TRT01PN":null,"TRT01A":"Xanomeline High Dose","SITEGR1":900,"SITEID":701,"TRTSDT":"2013-07-19","TRTEDT":"2014-01-14","ITTFL":"Y","SAFFL":"Y","EFFFL":"N","COMPLFL":"Y"},{"STUDYID":"CDISCPILOT01","USUBJID":"01-701-1028","PARAMCD":"TEMP","PARAM":"Temperature","ATPT":null,"AVAL":36.78,"AVALU":"C","SRCVISIT":"AMBUL ECG REMOVAL","ADT":"2013-08-16","DY":29,"ADY":29,"AVISIT":"Week 4","AVISITN":4,"ATARGDY":29,"BASE":37,"ABLFL":null,"CHG":-0.22,"PCHG":-0.5946,"ANL01FL":"Y","DTYPE":null,"ANL02FL":"Y","TRTP":"Xanomeline High Dose","TRT01P":"Xanomeline High Dose","TRT01PN":null,"TRT01A":"Xanomeline High Dose","SITEGR1":900,"SITEID":701,"TRTSDT":"2013-07-19","TRTEDT":"2014-01-14","ITTFL":"Y","SAFFL":"Y","EFFFL":"N","COMPLFL":"Y"},{"STUDYID":"CDISCPILOT01","USUBJID":"01-701-1028","PARAMCD":"TEMP","PARAM":"Temperature","ATPT":null,"AVAL":36.5,"AVALU":"C","SRCVISIT":"WEEK 6","ADT":"2013-08-29","DY":42,"ADY":42,"AVISIT":"Week 6","AVISITN":6,"ATARGDY":43,"BASE":37,"ABLFL":null,"CHG":-0.5,"PCHG":-1.3514,"ANL01FL":"Y","DTYPE":null,"ANL02FL":"Y","TRTP":"Xanomeline High Dose","TRT01P":"Xanomeline High Dose","TRT01PN":null,"TRT01A":"Xanomeline High Dose","SITEGR1":900,"SITEID":701,"TRTSDT":"2013-07-19","TRTEDT":"2014-01-14","ITTFL":"Y","SAFFL":"Y","EFFFL":"N","COMPLFL":"Y"},{"STUDYID":"CDISCPILOT01","USUBJID":"01-701-1028","PARAMCD":"TEMP","PARAM":"Temperature","ATPT":null,"AVAL":36.72,"AVALU":"C","SRCVISIT":"WEEK 8","ADT":"2013-09-10","DY":54,"ADY":54,"AVISIT":"Week 8","AVISITN":8,"ATARGDY":57,"BASE":37,"ABLFL":null,"CHG":-0.28,"PCHG":-0.7568,"ANL01FL":"Y","DTYPE":null,"ANL02FL":"Y","TRTP":"Xanomeline High Dose","TRT01P":"Xanomeline High Dose","TRT01PN":null,"TRT01A":"Xanomeline High Dose","SITEGR1":900,"SITEID":701,"TRTSDT":"2013-07-19","TRTEDT":"2014-01-14","ITTFL":"Y","SAFFL":"Y","EFFFL":"N","COMPLFL":"Y"},{"STUDYID":"CDISCPILOT01","USUBJID":"01-701-1028","PARAMCD":"TEMP","PARAM":"Temperature","ATPT":null,"AVAL":36.83,"AVALU":"C","SRCVISIT":"WEEK 12","ADT":"2013-10-09","DY":83,"ADY":83,"AVISIT":"Week 12","AVISITN":12,"ATARGDY":85,"BASE":37,"ABLFL":null,"CHG":-0.17,"PCHG":-0.4595,"ANL01FL":"Y","DTYPE":null,"ANL02FL":"Y","TRTP":"Xanomeline High Dose","TRT01P":"Xanomeline High Dose","TRT01PN":null,"TRT01A":"Xanomeline High Dose","SITEGR1":900,"SITEID":701,"TRTSDT":"2013-07-19","TRTEDT":"2014-01-14","ITTFL":"Y","SAFFL":"Y","EFFFL":"N","COMPLFL":"Y"},{"STUDYID":"CDISCPILOT01","USUBJID":"01-701-1028","PARAMCD":"TEMP","PARAM":"Temperature","ATPT":null,"AVAL":36.56,"AVALU":"C","SRCVISIT":"WEEK 16","ADT":"2013-11-06","DY":111,"ADY":111,"AVISIT":"Week 16","AVISITN":16,"ATARGDY":113,"BA