{
 "study": {
  "id": "CDISCPILOT01",
  "name": "CDISC PILOT - LZZT",
  "title": "Safety and Efficacy of the Xanomeline Transdermal Therapeutic System (TTS) in Patients with Mild to Moderate Alzheimer's",
  "phase": "Phase II"
 },
 "counts": {
  "objectives": 9,
  "endpoints": 15,
  "endpoints_unresolved": 3,
  "sdtm": 18,
  "sdtm_absent": 8,
  "adam": 11,
  "tlf": 50,
  "tlf_producible": 20
 },
 "status": {
  "generated": 20,
  "blocked": 27,
  "needs-clarification": 3
 },
 "issues": [
  {
   "severity": "blocked",
   "nodeId": "sdtm:DD",
   "relatedNodeIds": [],
   "message": "SDTM domain DD (Death Details) is absent from the delivered inventory. It blocks: Listing of Deaths; Incidence of Adverse Events with a Fatal Outcome (Deaths)."
  },
  {
   "severity": "blocked",
   "nodeId": "sdtm:DV",
   "relatedNodeIds": [],
   "message": "SDTM domain DV (Protocol Deviations) is absent from the delivered inventory. It blocks: Summary of Important Protocol Deviations."
  },
  {
   "severity": "blocked",
   "nodeId": "sdtm:EC",
   "relatedNodeIds": [],
   "message": "SDTM domain EC (Exposure as Collected) is absent from the delivered inventory. It blocks: Summary of Planned Exposure to Study Drug."
  },
  {
   "severity": "blocked",
   "nodeId": "sdtm:FA",
   "relatedNodeIds": [],
   "message": "SDTM domain FA (Findings About (injection-site reactions)) is absent from the delivered inventory. It blocks: Time to First Injection-Site Reaction by Treatment Group (Kaplan-Meier)."
  },
  {
   "severity": "blocked",
   "nodeId": "sdtm:FT",
   "relatedNodeIds": [],
   "message": "SDTM domain FT (Functional Tests (AVLT-REY)) is absent from the delivered inventory. It blocks: Change from Baseline to Week 24 in AVLT-REY List A Total Score - LOCF."
  },
  {
   "severity": "blocked",
   "nodeId": "sdtm:QSPH",
   "relatedNodeIds": [],
   "message": "SDTM domain QSPH (Questionnaires — PHQ-9) is absent from the delivered inventory. It blocks: Change from Baseline to Week 24 in PHQ-9 Total Score - LOCF; Repeated Measures Analysis of Change from Baseline to Week 24 in PHQ-9 Total Score; Change from Baseline to Week 24 in PHQ-9 Total Score - Completers, Observed Cases, Windowed; Change from Baseline to Week 24 in PHQ-9 Total Score - Male subjects - LOCF; Change from Baseline to Week 24 in PHQ-9 Total Score - Female subjects - LOCF; PHQ-9 Total Score - Mean and Mean Change from Baseline Over Time."
  },
  {
   "severity": "blocked",
   "nodeId": "sdtm:QSSL",
   "relatedNodeIds": [],
   "message": "SDTM domain QSSL (Questionnaires — SWLS) is absent from the delivered inventory. It blocks: Change from Baseline to Week 24 in Satisfaction With Life Scale (SWLS) Total Score - LOCF."
  },
  {
   "severity": "blocked",
   "nodeId": "sdtm:RS",
   "relatedNodeIds": [],
   "message": "SDTM domain RS (Disease Response (HAMD 17)) is absent from the delivered inventory. It blocks: Summary of HAMD 17 Total Score at Baseline."
  },
  {
   "severity": "blocked",
   "nodeId": "tlf:ae-END3-km-time-to-injection-site-event",
   "relatedNodeIds": [
    "sdtm:FA"
   ],
   "message": "Blocked; no reason recorded."
  },
  {
   "severity": "blocked",
   "nodeId": "tlf:da-avlt-ancova-wk24",
   "relatedNodeIds": [
    "sdtm:FT"
   ],
   "message": "Blocked; no reason recorded."
  },
  {
   "severity": "blocked",
   "nodeId": "tlf:da-hamd17-baseline-descriptive",
   "relatedNodeIds": [
    "sdtm:RS"
   ],
   "message": "Blocked; no reason recorded."
  },
  {
   "severity": "blocked",
   "nodeId": "tlf:da-phq9-ancova-wk24",
   "relatedNodeIds": [
    "sdtm:QSPH"
   ],
   "message": "Blocked; no reason recorded."
  },
  {
   "severity": "blocked",
   "nodeId": "tlf:da-phq9-ancova-wk24-locf-female",
   "relatedNodeIds": [
    "sdtm:QSPH"
   ],
   "message": "blocked: analysis-set N too small to compute. Delivered study has 17 randomized subjects (Placebo 5 / Zanomaline Low 5 / Zanomaline High 7); the female subgroup is 12 subjects overall (Placebo 3 / Low 4 / High 4); with LOCF-derived endpoints this yields cells too small for an interpretable contrast."
  },
  {
   "severity": "blocked",
   "nodeId": "tlf:da-phq9-ancova-wk24-locf-male",
   "relatedNodeIds": [
    "sdtm:QSPH"
   ],
   "message": "blocked: analysis-set N too small to compute. Delivered study has 17 randomized subjects (Placebo 5 / Zanomaline Low 5 / Zanomaline High 7); the male subgroup is 6 subjects overall (Placebo 2 / Low 1 / High 3); no estimable dose-response contrast."
  },
  {
   "severity": "blocked",
   "nodeId": "tlf:da-phq9-ancova-wk24-oc",
   "relatedNodeIds": [
    "sdtm:QSPH"
   ],
   "message": "blocked: analysis-set N too small to compute. Delivered study has 17 randomized subjects (Placebo 5 / Zanomaline Low 5 / Zanomaline High 7); only 2 subjects have an observed (non-imputed) Week 24 PHQ-9 total, so the observed-cases/completers sensitivity analysis has no estimable treatment contrast."
  },
  {
   "severity": "blocked",
   "nodeId": "tlf:da-phq9-descriptive-time",
   "relatedNodeIds": [
    "sdtm:QSPH"
   ],
   "message": "Blocked; no reason recorded."
  },
  {
   "severity": "blocked",
   "nodeId": "tlf:da-phq9-mmrm",
   "relatedNodeIds": [
    "sdtm:QSPH"
   ],
   "message": "Blocked; no reason recorded."
  },
  {
   "severity": "blocked",
   "nodeId": "tlf:da-swls-ancova-wk24",
   "relatedNodeIds": [
    "sdtm:QSSL"
   ],
   "message": "Blocked; no reason recorded."
  },
  {
   "severity": "blocked",
   "nodeId": "tlf:eff-END1-ancova-wk24-locf",
   "relatedNodeIds": [],
   "message": "blocked: instrument absent from delivered SDTM. inputs/sdtm/ is the CDISC SDTM-MSG 'Zanomaline' sample (PHQ-9 / SWLS / HAMD 17 / AVLT-REY); it carries no ADAS-Cog (11) data. See study-model.json normalizer_notes (study-vs-data conflict)."
  },
  {
   "severity": "blocked",
   "nodeId": "tlf:eff-END1-ancova-wk24-locf-female",
   "relatedNodeIds": [],
   "message": "blocked: instrument absent from delivered SDTM. inputs/sdtm/ is the CDISC SDTM-MSG 'Zanomaline' sample (PHQ-9 / SWLS / HAMD 17 / AVLT-REY); it carries no ADAS-Cog (11) data. See study-model.json normalizer_notes (study-vs-data conflict)."
  },
  {
   "severity": "blocked",
   "nodeId": "tlf:eff-END1-ancova-wk24-locf-male",
   "relatedNodeIds": [],
   "message": "blocked: instrument absent from delivered SDTM. inputs/sdtm/ is the CDISC SDTM-MSG 'Zanomaline' sample (PHQ-9 / SWLS / HAMD 17 / AVLT-REY); it carries no ADAS-Cog (11) data. See study-model.json normalizer_notes (study-vs-data conflict)."
  },
  {
   "severity": "blocked",
   "nodeId": "tlf:eff-END1-ancova-wk24-oc",
   "relatedNodeIds": [],
   "message": "blocked: instrument absent from delivered SDTM. inputs/sdtm/ is the CDISC SDTM-MSG 'Zanomaline' sample (PHQ-9 / SWLS / HAMD 17 / AVLT-REY); it carries no ADAS-Cog (11) data. See study-model.json normalizer_notes (study-vs-data conflict)."
  },
  {
   "severity": "blocked",
   "nodeId": "tlf:eff-END1-descriptive-time",
   "relatedNodeIds": [],
   "message": "blocked: instrument absent from delivered SDTM. inputs/sdtm/ is the CDISC SDTM-MSG 'Zanomaline' sample (PHQ-9 / SWLS / HAMD 17 / AVLT-REY); it carries no ADAS-Cog (11) data. See study-model.json normalizer_notes (study-vs-data conflict)."
  },
  {
   "severity": "blocked",
   "nodeId": "tlf:eff-END1-mmrm",
   "relatedNodeIds": [],
   "message": "blocked: instrument absent from delivered SDTM. inputs/sdtm/ is the CDISC SDTM-MSG 'Zanomaline' sample (PHQ-9 / SWLS / HAMD 17 / AVLT-REY); it carries no ADAS-Cog (11) data. See study-model.json normalizer_notes (study-vs-data conflict)."
  },
  {
   "severity": "blocked",
   "nodeId": "tlf:eff-END2-anova-wk24",
   "relatedNodeIds": [],
   "message": "blocked: instrument absent from delivered SDTM. inputs/sdtm/ is the CDISC SDTM-MSG 'Zanomaline' sample (PHQ-9 / SWLS / HAMD 17 / AVLT-REY); it carries no CIBIC+ data. See study-model.json normalizer_notes (study-vs-data conflict)."
  },
  {
   "severity": "blocked",
   "nodeId": "tlf:eff-END2-cmh",
   "relatedNodeIds": [],
   "message": "blocked: instrument absent from delivered SDTM. inputs/sdtm/ is the CDISC SDTM-MSG 'Zanomaline' sample (PHQ-9 / SWLS / HAMD 17 / AVLT-REY); it carries no CIBIC+ data. See study-model.json normalizer_notes (study-vs-data conflict)."
  },
  {
   "severity": "blocked",
   "nodeId": "tlf:eff-END6-ancova-wk16",
   "relatedNodeIds": [],
   "message": "blocked: instrument absent from delivered SDTM. inputs/sdtm/ is the CDISC SDTM-MSG 'Zanomaline' sample (PHQ-9 / SWLS / HAMD 17 / AVLT-REY); it carries no ADAS-Cog (11) data. See study-model.json normalizer_notes (study-vs-data conflict)."
  },
  {
   "severity": "blocked",
   "nodeId": "tlf:eff-END6-ancova-wk8",
   "relatedNodeIds": [],
   "message": "blocked: instrument absent from delivered SDTM. inputs/sdtm/ is the CDISC SDTM-MSG 'Zanomaline' sample (PHQ-9 / SWLS / HAMD 17 / AVLT-REY); it carries no ADAS-Cog (11) data. See study-model.json normalizer_notes (study-vs-data conflict)."
  },
  {
   "severity": "blocked",
   "nodeId": "tlf:eff-END7-descriptive-wk16",
   "relatedNodeIds": [],
   "message": "blocked: instrument absent from delivered SDTM. inputs/sdtm/ is the CDISC SDTM-MSG 'Zanomaline' sample (PHQ-9 / SWLS / HAMD 17 / AVLT-REY); it carries no CIBIC+ data. See study-model.json normalizer_notes (study-vs-data conflict)."
  },
  {
   "severity": "blocked",
   "nodeId": "tlf:eff-END7-descriptive-wk8",
   "relatedNodeIds": [],
   "message": "blocked: instrument absent from delivered SDTM. inputs/sdtm/ is the CDISC SDTM-MSG 'Zanomaline' sample (PHQ-9 / SWLS / HAMD 17 / AVLT-REY); it carries no CIBIC+ data. See study-model.json normalizer_notes (study-vs-data conflict)."
  },
  {
   "severity": "blocked",
   "nodeId": "tlf:eff-END8-descriptive-windowed",
   "relatedNodeIds": [],
   "message": "blocked: instrument absent from delivered SDTM. inputs/sdtm/ is the CDISC SDTM-MSG 'Zanomaline' sample (PHQ-9 / SWLS / HAMD 17 / AVLT-REY); it carries no NPI-X data. See study-model.json normalizer_notes (study-vs-data conflict)."
  },
  {
   "severity": "blocked",
   "nodeId": "tlf:lab-END5-freq-normal-abnormal-range",
   "relatedNodeIds": [],
   "message": "Blocked; no reason recorded."
  },
  {
   "severity": "blocked",
   "nodeId": "tlf:lab-END5-shift-threshold-byvisit",
   "relatedNodeIds": [],
   "message": "Blocked; no reason recorded."
  },
  {
   "severity": "blocked",
   "nodeId": "tlf:lab-END5-shift-threshold-overall",
   "relatedNodeIds": [],
   "message": "Blocked; no reason recorded."
  },
  {
   "severity": "blocked",
   "nodeId": "tlf:reg-protocol-deviations",
   "relatedNodeIds": [
    "sdtm:DV"
   ],
   "message": "blocked: SDTM DV domain absent from inputs/sdtm/ and protocol deviations cannot be derived from any present domain."
  },
  {
   "severity": "clarification",
   "nodeId": "end:Endpoint_10",
   "relatedNodeIds": [
    "obj:Objective_5"
   ],
   "message": "Endpoint END10 (Endpoint_10) is unresolved: its protocol text is the placeholder \"*** To be determined from protocol ***\". No output can be planned until it is defined."
  },
  {
   "severity": "clarification",
   "nodeId": "end:Endpoint_11",
   "relatedNodeIds": [
    "obj:Objective_6"
   ],
   "message": "Endpoint END11 (Endpoint_11) is unresolved: its protocol text is the placeholder \"*** To be determined from protocol ***\". No output can be planned until it is defined."
  },
  {
   "severity": "clarification",
   "nodeId": "end:Endpoint_9",
   "relatedNodeIds": [
    "obj:Objective_4"
   ],
   "message": "Endpoint END9 (Endpoint_9) is unresolved: its protocol text is the placeholder \"*** To be determined from protocol ***\". No output can be planned until it is defined."
  },
  {
   "severity": "clarification",
   "nodeId": "obj:Objective_4",
   "relatedNodeIds": [
    "end:Endpoint_9"
   ],
   "message": "Objective OBJ4 has no generated output. All of its endpoints are unresolved."
  },
  {
   "severity": "clarification",
   "nodeId": "obj:Objective_5",
   "relatedNodeIds": [
    "end:Endpoint_10"
   ],
   "message": "Objective OBJ5 has no generated output. All of its endpoints are unresolved."
  },
  {
   "severity": "clarification",
   "nodeId": "obj:Objective_6",
   "relatedNodeIds": [
    "end:Endpoint_11"
   ],
   "message": "Objective OBJ6 has no generated output. All of its endpoints are unresolved."
  },
  {
   "severity": "clarification",
   "nodeId": "tlf:clar-END10-placeholder",
   "relatedNodeIds": [],
   "message": "needs-clarification: traces to unresolved endpoint Endpoint_10 ('*** To be determined from protocol ***'); requires protocol/SAP clarification before an output can be planned. Independently, no ADAS-Cog (14) data exists in the delivered SDTM."
  },
  {
   "severity": "clarification",
   "nodeId": "tlf:clar-END11-placeholder",
   "relatedNodeIds": [],
   "message": "needs-clarification: traces to unresolved endpoint Endpoint_11 ('*** To be determined from protocol ***'); requires protocol/SAP clarification before an output can be planned. Independently, no Apo E genotype data exists in the delivered SDTM."
  },
  {
   "severity": "clarification",
   "nodeId": "tlf:clar-END9-placeholder",
   "relatedNodeIds": [],
   "message": "needs-clarification: traces to unresolved endpoint Endpoint_9 ('*** To be determined from protocol ***'); requires protocol/SAP clarification before an output can be planned. Independently, no DAD data exists in the delivered SDTM."
  },
  {
   "severity": "gap",
   "nodeId": "end:Endpoint_1",
   "relatedNodeIds": [],
   "message": "Resolved endpoint END1 (ADAS-Cog (11)) has no generated output — every display tracing to it is blocked. Coverage gap."
  },
  {
   "severity": "gap",
   "nodeId": "end:Endpoint_2",
   "relatedNodeIds": [],
   "message": "Resolved endpoint END2 (CIBIC+) has no generated output — every display tracing to it is blocked. Coverage gap."
  },
  {
   "severity": "gap",
   "nodeId": "end:Endpoint_6",
   "relatedNodeIds": [],
   "message": "Resolved endpoint END6 (ADAS-Cog (11)) has no generated output — every display tracing to it is blocked. Coverage gap."
  },
  {
   "severity": "gap",
   "nodeId": "end:Endpoint_7",
   "relatedNodeIds": [],
   "message": "Resolved endpoint END7 (CIBIC+) has no generated output — every display tracing to it is blocked. Coverage gap."
  },
  {
   "severity": "gap",
   "nodeId": "end:Endpoint_8",
   "relatedNodeIds": [],
   "message": "Resolved endpoint END8 (NPI-X) has no generated output — every display tracing to it is blocked. Coverage gap."
  },
  {
   "severity": "gap",
   "nodeId": "end:Endpoint_TS1",
   "relatedNodeIds": [],
   "message": "Resolved endpoint END-TS1 (PHQ-9 Total Score) has no generated output — every display tracing to it is blocked. Coverage gap."
  },
  {
   "severity": "gap",
   "nodeId": "end:Endpoint_TS2",
   "relatedNodeIds": [],
   "message": "Resolved endpoint END-TS2 (HAMD 17 Total Score) has no generated output — every display tracing to it is blocked. Coverage gap."
  },
  {
   "severity": "gap",
   "nodeId": "end:Endpoint_TS3",
   "relatedNodeIds": [],
   "message": "Resolved endpoint END-TS3 (SWLS Total Score) has no generated output — every display tracing to it is blocked. Coverage gap."
  },
  {
   "severity": "gap",
   "nodeId": "end:Endpoint_TS4",
   "relatedNodeIds": [],
   "message": "Resolved endpoint END-TS4 (AVLT-REY List A Total) has no generated output — every display tracing to it is blocked. Coverage gap."
  },
  {
   "severity": "gap",
   "nodeId": "obj:Objective_1",
   "relatedNodeIds": [
    "end:Endpoint_1",
    "end:Endpoint_2"
   ],
   "message": "Objective OBJ1 has no generated output. Its endpoints resolve, but every downstream display is blocked."
  },
  {
   "severity": "gap",
   "nodeId": "obj:Objective_3",
   "relatedNodeIds": [
    "end:Endpoint_6",
    "end:Endpoint_7",
    "end:Endpoint_8"
   ],
   "message": "Objective OBJ3 has no generated output. Its endpoints resolve, but every downstream display is blocked."
  },
  {
   "severity": "gap",
   "nodeId": "obj:Objective_TS1",
   "relatedNodeIds": [
    "end:Endpoint_TS1",
    "end:Endpoint_TS2"
   ],
   "message": "Objective OBJ-TS1 has no generated output. Its endpoints resolve, but every downstream display is blocked."
  },
  {
   "severity": "gap",
   "nodeId": "obj:Objective_TS2",
   "relatedNodeIds": [
    "end:Endpoint_TS3"
   ],
   "message": "Objective OBJ-TS2 has no generated output. Its endpoints resolve, but every downstream display is blocked."
  },
  {
   "severity": "gap",
   "nodeId": "obj:Objective_TS3",
   "relatedNodeIds": [
    "end:Endpoint_TS4"
   ],
   "message": "Objective OBJ-TS3 has no generated output. Its endpoints resolve, but every downstream display is blocked."
  },
  {
   "severity": "info",
   "nodeId": null,
   "relatedNodeIds": [],
   "message": "11 SDTM domain(s) present in inputs/sdtm/ feed no ADaM dataset and no planned display, so they are omitted from the graph: RELREC, SC, SE, SUPPAE, SUPPDS, SUPPLB, TA, TE, TI, TS, TV. Trial-design and administrative domains are expected here; OE (ophthalmic examinations, 285 records) is real collected data with no planned output."
  },
  {
   "severity": "info",
   "nodeId": null,
   "relatedNodeIds": [],
   "message": "[ADaM derivation] 1 — AE — `AEBODSYS` is **blank on all 74 records**. — `AESOC` used for the SOC hierarchy instead. Confirmed programmatically in `03_safety.R`. Without this check the AE tables would have had an empty SOC column."
  },
  {
   "severity": "info",
   "nodeId": null,
   "relatedNodeIds": [],
   "message": "[ADaM derivation] 2 — CM — **Not WHO-DD coded** — no `CMDECOD`, `CMCLAS` or `CMATC`. 52 distinct verbatim terms over 68 records. — T-14-7.04 can only summarize verbatim `CMTRT`; the conventional therapeutic-class hierarchy is not producible."
  },
  {
   "severity": "info",
   "nodeId": null,
   "relatedNodeIds": [],
   "message": "[ADaM derivation] 3 — CM — 31 of 68 `CMSTDTC` values are **partial dates** (year or year-month only). — `ASTDT` set to NA for those records; `ASTDY` retained. Handled by `safe_date()`, which reports the count rather than erroring or silently coercing."
  },
  {
   "severity": "info",
   "nodeId": null,
   "relatedNodeIds": [],
   "message": "[ADaM derivation] 4 — MH — Uncoded, single term \"ALZHEIMER'S DISEASE\" for all subjects. — T-14-1.04 degenerates to one row (critic finding R-5)."
  },
  {
   "severity": "info",
   "nodeId": null,
   "relatedNodeIds": [],
   "message": "[ADaM derivation] 5 — FA — Injection-site reactions collected on only **8 of 17** safety subjects. — The other 9 are censored in ADTTE, which understates the event rate. The KM figure requires a footnote."
  },
  {
   "severity": "info",
   "nodeId": null,
   "relatedNodeIds": [],
   "message": "[ADaM derivation] 6 — LB — No clinical-significance flag; 6 qualitative tests (ANISO, COLOR, KETONES, MACROCY, POIKILO, UROBIL) have no numeric result. — Qualitative tests excluded from continuous summaries; `CSCFL` all-missing (SD-4)."
  },
  {
   "severity": "info",
   "nodeId": null,
   "relatedNodeIds": [],
   "message": "[ADaM derivation] 7 — DM — 1 of 18 subjects (CDISC015) is a **screen failure** with a blank ARM. — Excluded from ITT/SAF/EFF by construction."
  },
  {
   "severity": "info",
   "nodeId": null,
   "relatedNodeIds": [],
   "message": "[ADaM derivation] A1 — Analysis-visit targets: Baseline d1, Wk2 d15, Wk4 d29, Wk6 d43, Wk8 d57, Wk12 d85, Wk16 d113, Wk20 d141, Wk24 d169, Wk26 d183; nearest-target windowing on `xxDY`. — `00_setup.R::window_by_day`"
  },
  {
   "severity": "info",
   "nodeId": null,
   "relatedNodeIds": [],
   "message": "[ADaM derivation] A2 — Each instrument is windowed onto **the target set it actually uses**, not the full study schedule — windowing PHQ-9 onto Week 8 (which it never collects) would misassign its Week-12 records. — `02_efficacy_bds.R`"
  },
  {
   "severity": "info",
   "nodeId": null,
   "relatedNodeIds": [],
   "message": "[ADaM derivation] A3 — Baseline = last non-missing record with `ADY <= 1`. For AVLT-REY that is SCREENING 2 (day -2/-1), since the instrument has no BASELINE visit (SD-2). — `derive_baseline()`"
  },
  {
   "severity": "info",
   "nodeId": null,
   "relatedNodeIds": [],
   "message": "[ADaM derivation] A4 — `TRTEMFL` = AE start on/after first dose and on/before last dose + 30 days. — `03_safety.R`"
  },
  {
   "severity": "info",
   "nodeId": null,
   "relatedNodeIds": [],
   "message": "[ADaM derivation] A5 — `SWLSTOT` = sum of the 5 SWLS items, missing unless all 5 present. All 27 visit-level totals had `NITEMS = 5`. — SD-1"
  },
  {
   "severity": "info",
   "nodeId": null,
   "relatedNodeIds": [],
   "message": "[ADaM derivation] A6 — Hy's Law `CRIT1` = ALT or AST >= 3xULN **and** BILI >= 2xULN, using record-level `LBSTNRHI` as ULN. **0 subjects met the criterion.** — SD-derived"
  },
  {
   "severity": "info",
   "nodeId": null,
   "relatedNodeIds": [],
   "message": "[ADaM derivation] A7 — ADTTE risk set = all `SAFFL='Y'` subjects; those with no injection-site reaction censored at last day on study drug. — See SDTM issue 5"
  },
  {
   "severity": "info",
   "nodeId": null,
   "relatedNodeIds": [],
   "message": "[ADaM derivation] A8 — Exposure duration = last `EXENDTC` - first `EXSTDTC` + 1 (range 1-189 days). — `03_safety.R`"
  },
  {
   "severity": "info",
   "nodeId": null,
   "relatedNodeIds": [],
   "message": "[ADaM derivation] G1 — **SD-4** — the lab \"clinically significant change\" criterion is defined by neither the protocol nor any available SAP. `CSCFL` is derived all-missing per the 2026-07-29 review decision. — Open, by decision. T-14-6.03 must footnote that the criterion is unspecified."
  },
  {
   "severity": "info",
   "nodeId": null,
   "relatedNodeIds": [],
   "message": "[ADaM derivation] G2 — `DV` domain absent — no protocol-deviation output possible. — Open; data-transfer question for the sponsor."
  },
  {
   "severity": "info",
   "nodeId": null,
   "relatedNodeIds": [],
   "message": "[ADaM derivation] G3 — Concomitant medications uncoded — no therapeutic-class table. — Accepted limitation."
  },
  {
   "severity": "info",
   "nodeId": null,
   "relatedNodeIds": [],
   "message": "[ADaM derivation] G4 — **Analysis-set sizes are far below any interpretable threshold**: ITT 306, Safety 254, Efficacy 0, Completers 110. The PHQ-9 primary endpoint has 10 analysis records of which only 8 are observed. — Accepted; every downstream inferential result must be labelled illustrative."
  },
  {
   "severity": "info",
   "nodeId": null,
   "relatedNodeIds": [],
   "message": "[ADaM derivation] G5 — `SITEGR1` has a single level, so it is rank-deficient as an ANCOVA covariate. — Expected (SD-6). The generator must refit without it and footnote the fallback."
  },
  {
   "severity": "info",
   "nodeId": null,
   "relatedNodeIds": [],
   "message": "[ADaM derivation] G6 — Hy's Law: 0 subjects meet the criterion. — Not a gap — a genuine (negative) finding. T-14-6.06 will be an all-zero table."
  }
 ],
 "nodes": [
  {
   "id": "obj:Objective_1",
   "type": "Objective",
   "tier": 0,
   "label": "OBJ1",
   "sublabel": "ADAS-Cog (11) & CIBIC+",
   "title": "To determine if there is a statistically significant relationship (overall Type 1 erroralpha=0.05) between the change in both the ADAS-Cog (11) and CIBIC+ scores, and drug dose (0, 50 cm2 [54 mg], and 75 cm2 [81 mg]).",
   "status": null,
   "unresolved": false,
   "absent": false,
   "isFigure": false,
   "meta": {
    "level": "Primary",
    "source": "USDM",
    "description": "Main objective",
    "text": "To determine if there is a statistically significant relationship (overall Type 1 erroralpha=0.05) between the change in both the ADAS-Cog (11) and CIBIC+ scores, and drug dose (0, 50 cm2 [54 mg], and 75 cm2 [81 mg]).",
    "endpoints": [
     "Endpoint_1",
     "Endpoint_2"
    ]
   }
  },
  {
   "id": "obj:Objective_2",
   "type": "Objective",
   "tier": 0,
   "label": "OBJ2",
   "sublabel": "Adverse events & Vital signs…",
   "title": "To document the safety profile of the xanomeline TTS.",
   "status": null,
   "unresolved": false,
   "absent": false,
   "isFigure": false,
   "meta": {
    "level": "Primary",
    "source": "USDM",
    "description": "Safety",
    "text": "To document the safety profile of the xanomeline TTS.",
    "endpoints": [
     "Endpoint_3",
     "Endpoint_4",
     "Endpoint_5"
    ]
   }
  },
  {
   "id": "obj:Objective_3",
   "type": "Objective",
   "tier": 0,
   "label": "OBJ3",
   "sublabel": "ADAS-Cog (11) & CIBIC+ & NPI-X",
   "title": "To assess the dose-dependent improvement in behavior. Improved scores on the Revised Neuropsychiatric Inventory (NPI-X) will indicate improvement in these areas.",
   "status": null,
   "unresolved": false,
   "absent": false,
   "isFigure": false,
   "meta": {
    "level": "Secondary",
    "source": "USDM",
    "description": "Behaviour",
    "text": "To assess the dose-dependent improvement in behavior. Improved scores on the Revised Neuropsychiatric Inventory (NPI-X) will indicate improvement in these areas.",
    "endpoints": [
     "Endpoint_6",
     "Endpoint_7",
     "Endpoint_8"
    ]
   }
  },
  {
   "id": "obj:Objective_4",
   "type": "Objective",
   "tier": 0,
   "label": "OBJ4",
   "sublabel": "To assess the dose-dependent…",
   "title": "To assess the dose-dependent improvements in activities of daily living. Improved scores on the Disability Assessment for Dementia (DAD) will indicate improvement in these areas (see Attachment LZZT.5).",
   "status": null,
   "unresolved": false,
   "absent": false,
   "isFigure": false,
   "meta": {
    "level": "Secondary",
    "source": "USDM",
    "description": "",
    "text": "To assess the dose-dependent improvements in activities of daily living. Improved scores on the Disability Assessment for Dementia (DAD) will indicate improvement in these areas (see Attachment LZZT.5).",
    "endpoints": [
     "Endpoint_9"
    ]
   }
  },
  {
   "id": "obj:Objective_5",
   "type": "Objective",
   "tier": 0,
   "label": "OBJ5",
   "sublabel": "To assess the dose-dependent…",
   "title": "To assess the dose-dependent improvements in an extended assessment of cognition that integrates attention/concentration tasks. The Alzheimer's Disease Assessment Scale-14 item Cognitive Subscale, hereafter referred to as ADAS-Cog (14), will be used for this assessment (see Attachment LZZT.2).",
   "status": null,
   "unresolved": false,
   "absent": false,
   "isFigure": false,
   "meta": {
    "level": "Secondary",
    "source": "USDM",
    "description": "",
    "text": "To assess the dose-dependent improvements in an extended assessment of cognition that integrates attention/concentration tasks. The Alzheimer's Disease Assessment Scale-14 item Cognitive Subscale, hereafter referred to as ADAS-Cog (14), will be used for this assessment (see Attachment LZZT.2).",
    "endpoints": [
     "Endpoint_10"
    ]
   }
  },
  {
   "id": "obj:Objective_6",
   "type": "Objective",
   "tier": 0,
   "label": "OBJ6",
   "sublabel": "To assess the treatment respo…",
   "title": "To assess the treatment response as a function of Apo E genotype.",
   "status": null,
   "unresolved": false,
   "absent": false,
   "isFigure": false,
   "meta": {
    "level": "Secondary",
    "source": "USDM",
    "description": "",
    "text": "To assess the treatment response as a function of Apo E genotype.",
    "endpoints": [
     "Endpoint_11"
    ]
   }
  },
  {
   "id": "obj:Objective_TS1",
   "type": "Objective",
   "tier": 0,
   "label": "OBJ-TS1",
   "sublabel": "PHQ-9 Total Score & HAMD 17 T…",
   "title": "To document the efficacy profile of Zanomaline. To assess the dose-dependent improvement in subject depression. Improved scores on the Patient Health Questionnaire (PHQ-9) and the Hamilton Depression Rating Scale (HAMD 17) will indicate improvements.",
   "status": null,
   "unresolved": false,
   "absent": false,
   "isFigure": false,
   "meta": {
    "level": "Primary",
    "source": "SDTM TS",
    "description": "Efficacy — depression (delivered-data objective)",
    "text": "To document the efficacy profile of Zanomaline. To assess the dose-dependent improvement in subject depression. Improved scores on the Patient Health Questionnaire (PHQ-9) and the Hamilton Depression Rating Scale (HAMD 17) will indicate improvements.",
    "endpoints": [
     "Endpoint_TS1",
     "Endpoint_TS2"
    ]
   }
  },
  {
   "id": "obj:Objective_TS2",
   "type": "Objective",
   "tier": 0,
   "label": "OBJ-TS2",
   "sublabel": "SWLS Total Score",
   "title": "To assess the dose-dependent improvements in satisfaction with subjects' lives as a whole. Improved scores on the Satisfaction With Life Survey (SWLS) will indicate improvements.",
   "status": null,
   "unresolved": false,
   "absent": false,
   "isFigure": false,
   "meta": {
    "level": "Secondary",
    "source": "SDTM TS",
    "description": "Efficacy — life satisfaction (delivered-data objective)",
    "text": "To assess the dose-dependent improvements in satisfaction with subjects' lives as a whole. Improved scores on the Satisfaction With Life Survey (SWLS) will indicate improvements.",
    "endpoints": [
     "Endpoint_TS3"
    ]
   }
  },
  {
   "id": "obj:Objective_TS3",
   "type": "Objective",
   "tier": 0,
   "label": "OBJ-TS3",
   "sublabel": "AVLT-REY List A Total",
   "title": "To assess the dose-dependent improvements in subject memory and learning. Improved scores on the Auditory Verbal Learning Test (AVLT-REY) will indicate improvements.",
   "status": null,
   "unresolved": false,
   "absent": false,
   "isFigure": false,
   "meta": {
    "level": "Secondary",
    "source": "SDTM TS",
    "description": "Efficacy — memory and learning (delivered-data objective)",
    "text": "To assess the dose-dependent improvements in subject memory and learning. Improved scores on the Auditory Verbal Learning Test (AVLT-REY) will indicate improvements.",
    "endpoints": [
     "Endpoint_TS4"
    ]
   }
  },
  {
   "id": "end:Endpoint_1",
   "type": "Endpoint",
   "tier": 1,
   "label": "END1",
   "sublabel": "ADAS-Cog (11) · Wk24",
   "title": "Alzheimer's Disease Assessment Scale - Cognitive Subscale, total of 11 items [ADAS-Cog (11)] at Week 24",
   "status": null,
   "unresolved": false,
   "absent": false,
   "isFigure": false,
   "meta": {
    "level": "Primary",
    "source": "USDM",
    "text": "Alzheimer's Disease Assessment Scale - Cognitive Subscale, total of 11 items [ADAS-Cog (11)] at Week 24",
    "objective": "Objective_1",
    "resolved": true,
    "measure": "ADAS-Cog (11)",
    "measure_type": "continuous",
    "timepoints": [
     "Week 24"
    ],
    "domain_hint": "efficacy-cognition"
   }
  },
  {
   "id": "end:Endpoint_2",
   "type": "Endpoint",
   "tier": 1,
   "label": "END2",
   "sublabel": "CIBIC+ · Wk24",
   "title": "Video-referenced Clinician’s Interview-based Impression of Change (CIBIC+) at Week 24",
   "status": null,
   "unresolved": false,
   "absent": false,
   "isFigure": false,
   "meta": {
    "level": "Primary",
    "source": "USDM",
    "text": "Video-referenced Clinician’s Interview-based Impression of Change (CIBIC+) at Week 24",
    "objective": "Objective_1",
    "resolved": true,
    "measure": "CIBIC+",
    "measure_type": "global-impression",
    "timepoints": [
     "Week 24"
    ],
    "domain_hint": "efficacy-global"
   }
  },
  {
   "id": "end:Endpoint_3",
   "type": "Endpoint",
   "tier": 1,
   "label": "END3",
   "sublabel": "Adverse events",
   "title": "Adverse events",
   "status": null,
   "unresolved": false,
   "absent": false,
   "isFigure": false,
   "meta": {
    "level": "Primary",
    "source": "USDM",
    "text": "Adverse events",
    "objective": "Objective_2",
    "resolved": true,
    "measure": "Adverse events",
    "measure_type": "event",
    "timepoints": [],
    "domain_hint": "safety-ae"
   }
  },
  {
   "id": "end:Endpoint_4",
   "type": "Endpoint",
   "tier": 1,
   "label": "END4",
   "sublabel": "Vital signs",
   "title": "Vital signs (weight, standing and supine blood pressure, heart rate)",
   "status": null,
   "unresolved": false,
   "absent": false,
   "isFigure": false,
   "meta": {
    "level": "Primary",
    "source": "USDM",
    "text": "Vital signs (weight, standing and supine blood pressure, heart rate)",
    "objective": "Objective_2",
    "resolved": true,
    "measure": "Vital signs",
    "measure_type": "continuous",
    "timepoints": [],
    "domain_hint": "safety-vs"
   }
  },
  {
   "id": "end:Endpoint_5",
   "type": "Endpoint",
   "tier": 1,
   "label": "END5",
   "sublabel": "Laboratory evaluations",
   "title": "Laboratory evaluations (Change from Baseline)",
   "status": null,
   "unresolved": false,
   "absent": false,
   "isFigure": false,
   "meta": {
    "level": "Primary",
    "source": "USDM",
    "text": "Laboratory evaluations (Change from Baseline)",
    "objective": "Objective_2",
    "resolved": true,
    "measure": "Laboratory evaluations",
    "measure_type": "continuous",
    "timepoints": [],
    "domain_hint": "safety-lab"
   }
  },
  {
   "id": "end:Endpoint_6",
   "type": "Endpoint",
   "tier": 1,
   "label": "END6",
   "sublabel": "ADAS-Cog (11) · Wk8 / Wk16",
   "title": "Alzheimer's Disease Assessment Scale - Cognitive Subscale, total of 11 items [ADAS-Cog (11)] at Weeks 8 and 16",
   "status": null,
   "unresolved": false,
   "absent": false,
   "isFigure": false,
   "meta": {
    "level": "Secondary",
    "source": "USDM",
    "text": "Alzheimer's Disease Assessment Scale - Cognitive Subscale, total of 11 items [ADAS-Cog (11)] at Weeks 8 and 16",
    "objective": "Objective_3",
    "resolved": true,
    "measure": "ADAS-Cog (11)",
    "measure_type": "continuous",
    "timepoints": [
     "Week 8",
     "Week 16"
    ],
    "domain_hint": "efficacy-cognition"
   }
  },
  {
   "id": "end:Endpoint_7",
   "type": "Endpoint",
   "tier": 1,
   "label": "END7",
   "sublabel": "CIBIC+ · Wk8 / Wk16",
   "title": "Video-referenced Clinician’s Interview-based Impression of Change (CIBIC+) at Weeks 8 and 16",
   "status": null,
   "unresolved": false,
   "absent": false,
   "isFigure": false,
   "meta": {
    "level": "Secondary",
    "source": "USDM",
    "text": "Video-referenced Clinician’s Interview-based Impression of Change (CIBIC+) at Weeks 8 and 16",
    "objective": "Objective_3",
    "resolved": true,
    "measure": "CIBIC+",
    "measure_type": "global-impression",
    "timepoints": [
     "Week 8",
     "Week 16"
    ],
    "domain_hint": "efficacy-global"
   }
  },
  {
   "id": "end:Endpoint_8",
   "type": "Endpoint",
   "tier": 1,
   "label": "END8",
   "sublabel": "NPI-X · Wk4 / Wk24",
   "title": "Mean Revised Neuropsychiatric Inventory (NPI-X) from Week 4 to Week 24",
   "status": null,
   "unresolved": false,
   "absent": false,
   "isFigure": false,
   "meta": {
    "level": "Secondary",
    "source": "USDM",
    "text": "Mean Revised Neuropsychiatric Inventory (NPI-X) from Week 4 to Week 24",
    "objective": "Objective_3",
    "resolved": true,
    "measure": "NPI-X",
    "measure_type": "continuous",
    "timepoints": [
     "Week 4",
     "Week 24"
    ],
    "domain_hint": "efficacy-behavior"
   }
  },
  {
   "id": "end:Endpoint_9",
   "type": "Endpoint",
   "tier": 1,
   "label": "END9",
   "sublabel": "unresolved — to be determined",
   "title": "*** To be determined from protocol ***",
   "status": null,
   "unresolved": true,
   "absent": false,
   "isFigure": false,
   "meta": {
    "level": "Secondary",
    "source": "USDM",
    "text": "*** To be determined from protocol ***",
    "objective": "Objective_4",
    "resolved": false,
    "measure": null,
    "measure_type": null,
    "timepoints": [],
    "domain_hint": null
   }
  },
  {
   "id": "end:Endpoint_10",
   "type": "Endpoint",
   "tier": 1,
   "label": "END10",
   "sublabel": "unresolved — to be determined",
   "title": "*** To be determined from protocol ***",
   "status": null,
   "unresolved": true,
   "absent": false,
   "isFigure": false,
   "meta": {
    "level": "Secondary",
    "source": "USDM",
    "text": "*** To be determined from protocol ***",
    "objective": "Objective_5",
    "resolved": false,
    "measure": null,
    "measure_type": null,
    "timepoints": [],
    "domain_hint": null
   }
  },
  {
   "id": "end:Endpoint_11",
   "type": "Endpoint",
   "tier": 1,
   "label": "END11",
   "sublabel": "unresolved — to be determined",
   "title": "*** To be determined from protocol ***",
   "status": null,
   "unresolved": true,
   "absent": false,
   "isFigure": false,
   "meta": {
    "level": "Secondary",
    "source": "USDM",
    "text": "*** To be determined from protocol ***",
    "objective": "Objective_6",
    "resolved": false,
    "measure": null,
    "measure_type": null,
    "timepoints": [],
    "domain_hint": null
   }
  },
  {
   "id": "end:Endpoint_TS1",
   "type": "Endpoint",
   "tier": 1,
   "label": "END-TS1",
   "sublabel": "PHQ-9 Total Score · Wk24",
   "title": "Change from Baseline to Week 24 in PHQ-9 Total Score",
   "status": null,
   "unresolved": false,
   "absent": false,
   "isFigure": false,
   "meta": {
    "level": "Primary",
    "source": "SDTM TS",
    "text": "Change from Baseline to Week 24 in PHQ-9 Total Score",
    "objective": "Objective_TS1",
    "resolved": true,
    "measure": "PHQ-9 Total Score",
    "measure_type": "continuous",
    "timepoints": [
     "Week 24"
    ],
    "domain_hint": "efficacy-depression"
   }
  },
  {
   "id": "end:Endpoint_TS2",
   "type": "Endpoint",
   "tier": 1,
   "label": "END-TS2",
   "sublabel": "HAMD 17 Total Score · Baseline",
   "title": "HAMD 17 Total Score",
   "status": null,
   "unresolved": false,
   "absent": false,
   "isFigure": false,
   "meta": {
    "level": "Primary",
    "source": "SDTM TS",
    "text": "HAMD 17 Total Score",
    "objective": "Objective_TS1",
    "resolved": true,
    "measure": "HAMD 17 Total Score",
    "measure_type": "continuous",
    "timepoints": [
     "Baseline"
    ],
    "domain_hint": "efficacy-depression"
   }
  },
  {
   "id": "end:Endpoint_TS3",
   "type": "Endpoint",
   "tier": 1,
   "label": "END-TS3",
   "sublabel": "SWLS Total Score · Wk24",
   "title": "Change from Baseline to Week 24 in Satisfaction With Life Scale (SWLS) Total Score",
   "status": null,
   "unresolved": false,
   "absent": false,
   "isFigure": false,
   "meta": {
    "level": "Secondary",
    "source": "SDTM TS",
    "text": "Change from Baseline to Week 24 in Satisfaction With Life Scale (SWLS) Total Score",
    "objective": "Objective_TS2",
    "resolved": true,
    "measure": "SWLS Total Score",
    "measure_type": "continuous",
    "timepoints": [
     "Week 24"
    ],
    "domain_hint": "efficacy-pro"
   }
  },
  {
   "id": "end:Endpoint_TS4",
   "type": "Endpoint",
   "tier": 1,
   "label": "END-TS4",
   "sublabel": "AVLT-REY List A Total · Wk24",
   "title": "Change from Baseline to Week 24 in AVLT-REY List A Total Score",
   "status": null,
   "unresolved": false,
   "absent": false,
   "isFigure": false,
   "meta": {
    "level": "Secondary",
    "source": "SDTM TS",
    "text": "Change from Baseline to Week 24 in AVLT-REY List A Total Score",
    "objective": "Objective_TS3",
    "resolved": true,
    "measure": "AVLT-REY List A Total",
    "measure_type": "continuous",
    "timepoints": [
     "Week 24"
    ],
    "domain_hint": "efficacy-cognition"
   }
  },
  {
   "id": "reg:ICHE3",
   "type": "Regulatory",
   "tier": 1,
   "label": "ICH E3",
   "sublabel": "ICH E3",
   "title": "ICH E3 — Structure and Content of Clinical Study Reports",
   "status": null,
   "unresolved": false,
   "absent": false,
   "isFigure": false,
   "meta": {
    "standard": "ICH E3",
    "note": "Objective-independent regulatory scaffolding: displays mandated by reporting convention rather than by any study objective."
   }
  },
  {
   "id": "sdtm:AE",
   "type": "SDTM",
   "tier": 4,
   "label": "AE",
   "sublabel": "Adverse Events",
   "title": "Adverse Events",
   "status": null,
   "unresolved": false,
   "absent": false,
   "isFigure": false,
   "meta": {
    "domain": "AE",
    "label": "Adverse Events",
    "absent": false,
    "present_in_inventory": true
   }
  },
  {
   "id": "sdtm:CM",
   "type": "SDTM",
   "tier": 4,
   "label": "CM",
   "sublabel": "Concomitant Medications",
   "title": "Concomitant Medications",
   "status": null,
   "unresolved": false,
   "absent": false,
   "isFigure": false,
   "meta": {
    "domain": "CM",
    "label": "Concomitant Medications",
    "absent": false,
    "present_in_inventory": true
   }
  },
  {
   "id": "sdtm:DD",
   "type": "SDTM",
   "tier": 4,
   "label": "DD",
   "sublabel": "Death Details",
   "title": "Death Details",
   "status": null,
   "unresolved": false,
   "absent": true,
   "isFigure": false,
   "meta": {
    "domain": "DD",
    "label": "Death Details",
    "absent": true,
    "present_in_inventory": false
   }
  },
  {
   "id": "sdtm:DM",
   "type": "SDTM",
   "tier": 4,
   "label": "DM",
   "sublabel": "Demographics",
   "title": "Demographics",
   "status": null,
   "unresolved": false,
   "absent": false,
   "isFigure": false,
   "meta": {
    "domain": "DM",
    "label": "Demographics",
    "absent": false,
    "present_in_inventory": true
   }
  },
  {
   "id": "sdtm:DS",
   "type": "SDTM",
   "tier": 4,
   "label": "DS",
   "sublabel": "Disposition",
   "title": "Disposition",
   "status": null,
   "unresolved": false,
   "absent": false,
   "isFigure": false,
   "meta": {
    "domain": "DS",
    "label": "Disposition",
    "absent": false,
    "present_in_inventory": true
   }
  },
  {
   "id": "sdtm:DV",
   "type": "SDTM",
   "tier": 4,
   "label": "DV",
   "sublabel": "Protocol Deviations",
   "title": "Protocol Deviations",
   "status": null,
   "unresolved": false,
   "absent": true,
   "isFigure": false,
   "meta": {
    "domain": "DV",
    "label": "Protocol Deviations",
    "absent": true,
    "present_in_inventory": false
   }
  },
  {
   "id": "sdtm:EC",
   "type": "SDTM",
   "tier": 4,
   "label": "EC",
   "sublabel": "Exposure as Collected",
   "title": "Exposure as Collected",
   "status": null,
   "unresolved": false,
   "absent": true,
   "isFigure": false,
   "meta": {
    "domain": "EC",
    "label": "Exposure as Collected",
    "absent": true,
    "present_in_inventory": false
   }
  },
  {
   "id": "sdtm:EX",
   "type": "SDTM",
   "tier": 4,
   "label": "EX",
   "sublabel": "Exposure",
   "title": "Exposure",
   "status": null,
   "unresolved": false,
   "absent": false,
   "isFigure": false,
   "meta": {
    "domain": "EX",
    "label": "Exposure",
    "absent": false,
    "present_in_inventory": true
   }
  },
  {
   "id": "sdtm:FA",
   "type": "SDTM",
   "tier": 4,
   "label": "FA",
   "sublabel": "Findings About (injection-sit…",
   "title": "Findings About (injection-site reactions)",
   "status": null,
   "unresolved": false,
   "absent": true,
   "isFigure": false,
   "meta": {
    "domain": "FA",
    "label": "Findings About (injection-site reactions)",
    "absent": true,
    "present_in_inventory": false
   }
  },
  {
   "id": "sdtm:FT",
   "type": "SDTM",
   "tier": 4,
   "label": "FT",
   "sublabel": "Functional Tests (AVLT-REY)",
   "title": "Functional Tests (AVLT-REY)",
   "status": null,
   "unresolved": false,
   "absent": true,
   "isFigure": false,
   "meta": {
    "domain": "FT",
    "label": "Functional Tests (AVLT-REY)",
    "absent": true,
    "present_in_inventory": false
   }
  },
  {
   "id": "sdtm:LB",
   "type": "SDTM",
   "tier": 4,
   "label": "LB",
   "sublabel": "Laboratory Test Results",
   "title": "Laboratory Test Results",
   "status": null,
   "unresolved": false,
   "absent": false,
   "isFigure": false,
   "meta": {
    "domain": "LB",
    "label": "Laboratory Test Results",
    "absent": false,
    "present_in_inventory": true
   }
  },
  {
   "id": "sdtm:MH",
   "type": "SDTM",
   "tier": 4,
   "label": "MH",
   "sublabel": "Medical History",
   "title": "Medical History",
   "status": null,
   "unresolved": false,
   "absent": false,
   "isFigure": false,
   "meta": {
    "domain": "MH",
    "label": "Medical History",
    "absent": false,
    "present_in_inventory": true
   }
  },
  {
   "id": "sdtm:QSPH",
   "type": "SDTM",
   "tier": 4,
   "label": "QSPH",
   "sublabel": "Questionnaires — PHQ-9",
   "title": "Questionnaires — PHQ-9",
   "status": null,
   "unresolved": false,
   "absent": true,
   "isFigure": false,
   "meta": {
    "domain": "QSPH",
    "label": "Questionnaires — PHQ-9",
    "absent": true,
    "present_in_inventory": false
   }
  },
  {
   "id": "sdtm:QSSL",
   "type": "SDTM",
   "tier": 4,
   "label": "QSSL",
   "sublabel": "Questionnaires — SWLS",
   "title": "Questionnaires — SWLS",
   "status": null,
   "unresolved": false,
   "absent": true,
   "isFigure": false,
   "meta": {
    "domain": "QSSL",
    "label": "Questionnaires — SWLS",
    "absent": true,
    "present_in_inventory": false
   }
  },
  {
   "id": "sdtm:RS",
   "type": "SDTM",
   "tier": 4,
   "label": "RS",
   "sublabel": "Disease Response (HAMD 17)",
   "title": "Disease Response (HAMD 17)",
   "status": null,
   "unresolved": false,
   "absent": true,
   "isFigure": false,
   "meta": {
    "domain": "RS",
    "label": "Disease Response (HAMD 17)",
    "absent": true,
    "present_in_inventory": false
   }
  },
  {
   "id": "sdtm:SUPPDM",
   "type": "SDTM",
   "tier": 4,
   "label": "SUPPDM",
   "sublabel": "Supplemental DM",
   "title": "Supplemental DM",
   "status": null,
   "unresolved": false,
   "absent": false,
   "isFigure": false,
   "meta": {
    "domain": "SUPPDM",
    "label": "Supplemental DM",
    "absent": false,
    "present_in_inventory": true
   }
  },
  {
   "id": "sdtm:SV",
   "type": "SDTM",
   "tier": 4,
   "label": "SV",
   "sublabel": "Subject Visits",
   "title": "Subject Visits",
   "status": null,
   "unresolved": false,
   "absent": false,
   "isFigure": false,
   "meta": {
    "domain": "SV",
    "label": "Subject Visits",
    "absent": false,
    "present_in_inventory": true
   }
  },
  {
   "id": "sdtm:VS",
   "type": "SDTM",
   "tier": 4,
   "label": "VS",
   "sublabel": "Vital Signs",
   "title": "Vital Signs",
   "status": null,
   "unresolved": false,
   "absent": false,
   "isFigure": false,
   "meta": {
    "domain": "VS",
    "label": "Vital Signs",
    "absent": false,
    "present_in_inventory": true
   }
  },
  {
   "id": "adam:ADSL",
   "type": "ADaM",
   "tier": 3,
   "label": "ADSL",
   "sublabel": "ADSL",
   "title": "ADSL — ADSL (DM, DS, EX, SV, SUPPDM, DD)",
   "status": null,
   "unresolved": false,
   "absent": false,
   "isFigure": false,
   "meta": {
    "klass": "ADSL",
    "sdtm_source": [
     "DM",
     "DS",
     "EX",
     "SV",
     "SUPPDM",
     "DD"
    ],
    "used_by_tables": [
     "14-1",
     "14-1.01",
     "14-1.02",
     "14-1.03",
     "14-1.04",
     "14-2.01",
     "14-2.02",
     "14-3.01",
     "14-3.02",
     "14-3.03",
     "14-3.04",
     "14-3.05",
     "14-4.01",
     "14-5.01",
     "14-5.02",
     "14-5.03",
     "14-5.04",
     "14-5.05",
     "14-5.06",
     "14-6.01",
     "14-6.02",
     "14-6.03",
     "14-6.04",
     "14-6.05",
     "14-6.06",
     "14-7.01",
     "14-7.02",
     "14-7.03",
     "14-7.04"
    ],
    "derivation_requirements": [
     "SITEGR1 pooling counts RANDOMIZED (ITTFL='Y') subjects"
    ],
    "parameters": [],
    "variables": [
     {
      "name": "STUDYID",
      "role": "study identifier",
      "source": "",
      "source_domains": []
     },
     {
      "name": "USUBJID",
      "role": "unique subject identifier",
      "source": "",
      "source_domains": []
     },
     {
      "name": "SUBJID",
      "role": "subject id",
      "source": "",
      "source_domains": []
     },
     {
      "name": "SITEID",
      "role": "investigational site",
      "source": "DM.SITEID",
      "source_domains": [
       "DM"
      ]
     },
     {
      "name": "SITEGR1",
      "role": "pooled site group",
      "source": "derived",
      "source_domains": []
     },
     {
      "name": "ARM",
      "role": "planned arm",
      "source": "DM.ARM",
      "source_domains": [
       "DM"
      ]
     },
     {
      "name": "ACTARM",
      "role": "actual arm",
      "source": "DM.ACTARM",
      "source_domains": [
       "DM"
      ]
     },
     {
      "name": "TRT01P",
      "role": "planned treatment",
      "source": "DM.ARM",
      "source_domains": [
       "DM"
      ]
     },
     {
      "name": "TRT01PN",
      "role": "numeric planned dose",
      "source": "derived",
      "source_domains": []
     },
     {
      "name": "TRT01A",
      "role": "actual treatment",
      "source": "DM.ACTARM",
      "source_domains": [
       "DM"
      ]
     },
     {
      "name": "TRT01AN",
      "role": "numeric actual dose",
      "source": "derived",
      "source_domains": []
     },
     {
      "name": "TRTSDT",
      "role": "first exposure date",
      "source": "EX.EXSTDTC (min)",
      "source_domains": [
       "EX"
      ]
     },
     {
      "name": "TRTEDT",
      "role": "last exposure date",
      "source": "EX.EXENDTC (max)",
      "source_domains": [
       "EX"
      ]
     },
     {
      "name": "TRTDURD",
      "role": "treatment duration (days)",
      "source": "derived",
      "source_domains": []
     },
     {
      "name": "AGE",
      "role": "age",
      "source": "DM.AGE",
      "source_domains": [
       "DM"
      ]
     },
     {
      "name": "AGEGR1",
      "role": "age group",
      "source": "derived",
      "source_domains": []
     },
     {
      "name": "SEX",
      "role": "sex",
      "source": "DM.SEX",
      "source_domains": [
       "DM"
      ]
     },
     {
      "name": "RACE",
      "role": "race",
      "source": "DM.RACE",
      "source_domains": [
       "DM"
      ]
     },
     {
      "name": "ETHNIC",
      "role": "ethnicity",
      "source": "DM.ETHNIC",
      "source_domains": [
       "DM"
      ]
     },
     {
      "name": "COUNTRY",
      "role": "country",
      "source": "DM.COUNTRY",
      "source_domains": [
       "DM"
      ]
     },
     {
      "name": "WEIGHTBL",
      "role": "baseline weight (kg)",
      "source": "VS WEIGHT at ABLFL",
      "source_domains": [
       "DM",
       "DS",
       "EX",
       "SV",
       "SUPPDM",
       "DD"
      ]
     },
     {
      "name": "HEIGHTBL",
      "role": "baseline height (cm)",
      "source": "VS HEIGHT at ABLFL",
      "source_domains": [
       "DM",
       "DS",
       "EX",
       "SV",
       "SUPPDM",
       "DD"
      ]
     },
     {
      "name": "BMIBL",
      "role": "baseline BMI",
      "source": "derived",
      "source_domains": []
     },
     {
      "name": "RANDFL",
      "role": "randomized flag",
      "source": "derived",
      "source_domains": []
     },
     {
      "name": "ITTFL",
      "role": "ITT population flag",
      "source": "derived",
      "source_domains": []
     },
     {
      "name": "SAFFL",
      "role": "safety population flag",
      "source": "derived",
      "source_domains": []
     },
     {
      "name": "EFFFL",
      "role": "efficacy population flag",
      "source": "derived",
      "source_domains": []
     },
     {
      "name": "COMPLFL",
      "role": "completers flag",
      "source": "derived",
      "source_domains": []
     },
     {
      "name": "EOSSTT",
      "role": "end of study status",
      "source": "DS",
      "source_domains": [
       "DS"
      ]
     },
     {
      "name": "DCSREAS",
      "role": "discontinuation reason",
      "source": "DS.DSDECOD",
      "source_domains": [
       "DS"
      ]
     },
     {
      "name": "EOSDT",
      "role": "end of study date",
      "source": "DS.DSSTDTC",
      "source_domains": [
       "DS"
      ]
     },
     {
      "name": "DTHFL",
      "role": "death flag",
      "source": "DM.DTHFL",
      "source_domains": [
       "DM"
      ]
     },
     {
      "name": "DTHDT",
      "role": "death date",
      "source": "DM.DTHDTC",
      "source_domains": [
       "DM"
      ]
     },
     {
      "name": "DTHDY",
      "role": "study day of death",
      "source": "derived",
      "source_domains": []
     },
     {
      "name": "DTHCAUS",
      "role": "primary cause of death",
      "source": "DD.DDORRES where DDTESTCD is primary cause of death",
      "source_domains": [
       "DD"
      ]
     },
     {
      "name": "ARMCD",
      "role": "planned arm code",
      "source": "DM.ARMCD",
      "source_domains": [
       "DM"
      ]
     },
     {
      "name": "ACTARMCD",
      "role": "actual arm code",
      "source": "DM.ACTARMCD",
      "source_domains": [
       "DM"
      ]
     },
     {
      "name": "TRTP",
      "role": "planned treatment (grouping variable used by every analysis)",
      "source": "derived from TRT01P",
      "source_domains": []
     },
     {
      "name": "AGEU",
      "role": "age unit",
      "source": "DM.AGEU",
      "source_domains": [
       "DM"
      ]
     },
     {
      "name": "AGEGR1N",
      "role": "age group number",
      "source": "derived",
      "source_domains": []
     }
    ],
    "notes": [
     "18 DM records: 17 randomized + 1 screen failure (blank ARM). RANDFL/ITTFL must exclude the screen failure.",
     "ACTARM equals ARM for every subject in this extract — no as-treated deviations.",
     "DTHCAUS requires a join to SDTM DD (3 records).",
     "Conformance correction (metatools::check_variables, 2026-07-29): ARMCD, ACTARMCD, TRTP, AGEU and AGEGR1N were derived but not enumerated in this spec. TRTP in particular is the grouping variable every analysis-spec entry references, so its omission was a real spec defect. Added."
    ]
   }
  },
  {
   "id": "adam:ADQSPHQ",
   "type": "ADaM",
   "tier": 3,
   "label": "ADQSPHQ",
   "sublabel": "BDS",
   "title": "ADQSPHQ — BDS (QSPH)",
   "status": null,
   "unresolved": false,
   "absent": false,
   "isFigure": false,
   "meta": {
    "klass": "BDS",
    "sdtm_source": [
     "QSPH"
    ],
    "used_by_tables": [
     "14-3.01",
     "14-3.04",
     "14-3.05"
    ],
    "derivation_requirements": [
     "Day-based analysis-visit windowing that never drops unscheduled/ET visits",
     "LOCF record creation at the endpoint visit"
    ],
    "parameters": [
     {
      "paramcd": "PHQTOT",
      "param": "PHQ-9 Total Score",
      "note": "Use the pre-computed total record. Do NOT sum PHQ0101..PHQ0110 — the total is supplied. Range 0-27."
     }
    ],
    "variables": [
     {
      "name": "AVAL",
      "role": "analysis value",
      "source": "",
      "source_domains": []
     },
     {
      "name": "BASE",
      "role": "baseline value",
      "source": "derived from ABLFL record",
      "source_domains": []
     },
     {
      "name": "CHG",
      "role": "change from baseline",
      "source": "derived",
      "source_domains": []
     },
     {
      "name": "PCHG",
      "role": "percent change from baseline",
      "source": "derived",
      "source_domains": []
     },
     {
      "name": "ADY",
      "role": "analysis day",
      "source": "derived",
      "source_domains": []
     },
     {
      "name": "AVISIT",
      "role": "analysis visit (windowed)",
      "source": "derived",
      "source_domains": []
     },
     {
      "name": "AVISITN",
      "role": "analysis visit number",
      "source": "derived",
      "source_domains": []
     },
     {
      "name": "ABLFL",
      "role": "baseline record flag",
      "source": "derived",
      "source_domains": []
     },
     {
      "name": "ANL01FL",
      "role": "primary analysis record flag (observed OR LOCF)",
      "source": "derived",
      "source_domains": []
     },
     {
      "name": "ANL02FL",
      "role": "observed-cases record flag (DTYPE='' only)",
      "source": "derived",
      "source_domains": []
     },
     {
      "name": "DTYPE",
      "role": "derivation type: '' or 'LOCF'",
      "source": "derived",
      "source_domains": []
     },
     {
      "name": "TRTP",
      "role": "planned treatment (grouping)",
      "source": "ADSL.TRT01P",
      "source_domains": [
       "*ADSL*"
      ]
     },
     {
      "name": "TRT01PN",
      "role": "numeric planned dose",
      "source": "ADSL.TRT01PN",
      "source_domains": [
       "*ADSL*"
      ]
     },
     {
      "name": "SITEGR1",
      "role": "pooled site group",
      "source": "ADSL",
      "source_domains": [
       "*ADSL*"
      ]
     },
     {
      "name": "EFFFL",
      "role": "efficacy population",
      "source": "ADSL",
      "source_domains": [
       "*ADSL*"
      ]
     },
     {
      "name": "ITTFL",
      "role": "ITT population",
      "source": "ADSL",
      "source_domains": [
       "*ADSL*"
      ]
     },
     {
      "name": "SAFFL",
      "role": "safety population",
      "source": "ADSL",
      "source_domains": [
       "*ADSL*"
      ]
     },
     {
      "name": "PARAMCD",
      "role": "parameter code",
      "source": "",
      "source_domains": []
     },
     {
      "name": "PARAM",
      "role": "parameter",
      "source": "",
      "source_domains": []
     },
     {
      "name": "PARAMN",
      "role": "parameter number",
      "source": "",
      "source_domains": []
     }
    ],
    "notes": [
     "Endpoint visit = Week 24 (AVISITN 24). Observed coverage: 13 BASELINE, 2 WEEK 24, 6 EARLY DISCONTINUATION RETRIEVAL, plus WEEK 12/16/20.",
     "The ED RETRIEVAL record must be windowed by ADY, not dropped — it is the source of most LOCF values."
    ]
   }
  },
  {
   "id": "adam:ADQSSWL",
   "type": "ADaM",
   "tier": 3,
   "label": "ADQSSWL",
   "sublabel": "BDS",
   "title": "ADQSSWL — BDS (QSSL)",
   "status": null,
   "unresolved": false,
   "absent": false,
   "isFigure": false,
   "meta": {
    "klass": "BDS",
    "sdtm_source": [
     "QSSL"
    ],
    "used_by_tables": [
     "14-3.02"
    ],
    "derivation_requirements": [
     "Day-based analysis-visit windowing that never drops unscheduled/ET visits",
     "LOCF record creation at the endpoint visit"
    ],
    "parameters": [
     {
      "paramcd": "SWLSTOT",
      "param": "Satisfaction With Life Scale Total Score",
      "note": "*** NO TOTAL-SCORE RECORD EXISTS IN SDTM *** Derive as the sum of the 5 items. Completeness rule: set the total to MISSING unless all 5 items are non-missing at that visit. Document the rule in define.xml."
     }
    ],
    "variables": [
     {
      "name": "AVAL",
      "role": "analysis value",
      "source": "",
      "source_domains": []
     },
     {
      "name": "BASE",
      "role": "baseline value",
      "source": "derived from ABLFL record",
      "source_domains": []
     },
     {
      "name": "CHG",
      "role": "change from baseline",
      "source": "derived",
      "source_domains": []
     },
     {
      "name": "PCHG",
      "role": "percent change from baseline",
      "source": "derived",
      "source_domains": []
     },
     {
      "name": "ADY",
      "role": "analysis day",
      "source": "derived",
      "source_domains": []
     },
     {
      "name": "AVISIT",
      "role": "analysis visit (windowed)",
      "source": "derived",
      "source_domains": []
     },
     {
      "name": "AVISITN",
      "role": "analysis visit number",
      "source": "derived",
      "source_domains": []
     },
     {
      "name": "ABLFL",
      "role": "baseline record flag",
      "source": "derived",
      "source_domains": []
     },
     {
      "name": "ANL01FL",
      "role": "primary analysis record flag (observed OR LOCF)",
      "source": "derived",
      "source_domains": []
     },
     {
      "name": "ANL02FL",
      "role": "observed-cases record flag (DTYPE='' only)",
      "source": "derived",
      "source_domains": []
     },
     {
      "name": "DTYPE",
      "role": "derivation type: '' or 'LOCF'",
      "source": "derived",
      "source_domains": []
     },
     {
      "name": "TRTP",
      "role": "planned treatment (grouping)",
      "source": "ADSL.TRT01P",
      "source_domains": [
       "*ADSL*"
      ]
     },
     {
      "name": "TRT01PN",
      "role": "numeric planned dose",
      "source": "ADSL.TRT01PN",
      "source_domains": [
       "*ADSL*"
      ]
     },
     {
      "name": "SITEGR1",
      "role": "pooled site group",
      "source": "ADSL",
      "source_domains": [
       "*ADSL*"
      ]
     },
     {
      "name": "EFFFL",
      "role": "efficacy population",
      "source": "ADSL",
      "source_domains": [
       "*ADSL*"
      ]
     },
     {
      "name": "ITTFL",
      "role": "ITT population",
      "source": "ADSL",
      "source_domains": [
       "*ADSL*"
      ]
     },
     {
      "name": "SAFFL",
      "role": "safety population",
      "source": "ADSL",
      "source_domains": [
       "*ADSL*"
      ]
     },
     {
      "name": "PARAMCD",
      "role": "parameter code",
      "source": "",
      "source_domains": []
     },
     {
      "name": "PARAM",
      "role": "parameter",
      "source": "",
      "source_domains": []
     },
     {
      "name": "NITEMS",
      "role": "number of non-missing items contributing to the total",
      "source": "derived",
      "source_domains": []
     }
    ],
    "notes": [
     "Same visit sparsity as PHQ-9: 13 subjects at BASELINE, 2 at WEEK 24, 6 with ED RETRIEVAL.",
     "NITEMS is carried so a reviewer can verify the completeness rule was applied."
    ]
   }
  },
  {
   "id": "adam:ADFTAVLT",
   "type": "ADaM",
   "tier": 3,
   "label": "ADFTAVLT",
   "sublabel": "BDS",
   "title": "ADFTAVLT — BDS (FT)",
   "status": null,
   "unresolved": false,
   "absent": false,
   "isFigure": false,
   "meta": {
    "klass": "BDS",
    "sdtm_source": [
     "FT"
    ],
    "used_by_tables": [
     "14-3.03"
    ],
    "derivation_requirements": [
     "Day-based analysis-visit windowing that never drops unscheduled/ET visits",
     "LOCF record creation at the endpoint visit"
    ],
    "parameters": [
     {
      "paramcd": "AVLATOT",
      "param": "AVLT-REY List A Total Learning (sum of trials 1-5)",
      "note": "SD-7. 'AVL02-List A Total' is scored PER TRIAL (FTREPNUM 1-7), not once per visit. Trials 1-5 are the learning trials; their sum is the conventional AVLT Total Learning endpoint. Completeness rule: missing unless all 5 trials are present. CAUTION: FTDTC carries a time component (one per trial) and must NOT be part of the aggregation key."
     },
     {
      "paramcd": "AVLADEL",
      "param": "AVLT-REY List A 30-Minute Delayed Recall",
      "note": "SD-7. Derived and retained; not consumed by a planned table."
     }
    ],
    "variables": [
     {
      "name": "AVAL",
      "role": "analysis value",
      "source": "",
      "source_domains": []
     },
     {
      "name": "BASE",
      "role": "baseline value",
      "source": "derived from ABLFL record",
      "source_domains": []
     },
     {
      "name": "CHG",
      "role": "change from baseline",
      "source": "derived",
      "source_domains": []
     },
     {
      "name": "PCHG",
      "role": "percent change from baseline",
      "source": "derived",
      "source_domains": []
     },
     {
      "name": "ADY",
      "role": "analysis day",
      "source": "derived",
      "source_domains": []
     },
     {
      "name": "AVISIT",
      "role": "analysis visit (windowed)",
      "source": "derived",
      "source_domains": []
     },
     {
      "name": "AVISITN",
      "role": "analysis visit number",
      "source": "derived",
      "source_domains": []
     },
     {
      "name": "ABLFL",
      "role": "baseline record flag",
      "source": "derived",
      "source_domains": []
     },
     {
      "name": "ANL01FL",
      "role": "primary analysis record flag (observed OR LOCF)",
      "source": "derived",
      "source_domains": []
     },
     {
      "name": "ANL02FL",
      "role": "observed-cases record flag (DTYPE='' only)",
      "source": "derived",
      "source_domains": []
     },
     {
      "name": "DTYPE",
      "role": "derivation type: '' or 'LOCF'",
      "source": "derived",
      "source_domains": []
     },
     {
      "name": "TRTP",
      "role": "planned treatment (grouping)",
      "source": "ADSL.TRT01P",
      "source_domains": [
       "*ADSL*"
      ]
     },
     {
      "name": "TRT01PN",
      "role": "numeric planned dose",
      "source": "ADSL.TRT01PN",
      "source_domains": [
       "*ADSL*"
      ]
     },
     {
      "name": "SITEGR1",
      "role": "pooled site group",
      "source": "ADSL",
      "source_domains": [
       "*ADSL*"
      ]
     },
     {
      "name": "EFFFL",
      "role": "efficacy population",
      "source": "ADSL",
      "source_domains": [
       "*ADSL*"
      ]
     },
     {
      "name": "ITTFL",
      "role": "ITT population",
      "source": "ADSL",
      "source_domains": [
       "*ADSL*"
      ]
     },
     {
      "name": "SAFFL",
      "role": "safety population",
      "source": "ADSL",
      "source_domains": [
       "*ADSL*"
      ]
     },
     {
      "name": "PARAMCD",
      "role": "parameter code",
      "source": "",
      "source_domains": []
     },
     {
      "name": "PARAM",
      "role": "parameter",
      "source": "",
      "source_domains": []
     }
    ],
    "notes": [
     "*** BASELINE DEVIATION *** FT has NO 'BASELINE' visit for AVLT-REY. The earliest assessment is SCREENING 2 (98 records). ABLFL MUST be set on the SCREENING 2 record; FTLOBXFL='Y' should corroborate. Document the deviation in define.xml and footnote every consuming table.",
     "Best-populated efficacy endpoint: 14 observed WEEK 24 records and 21 ED RETRIEVAL records.",
     "SD-7 (discovered at derivation): the original spec treated 'AVL02-List A Total' as one score per visit. It is one score per trial. Taking a single FTREPNUM record would have analysed an arbitrary learning trial instead of the instrument's score. Parameters corrected above."
    ]
   }
  },
  {
   "id": "adam:ADRSHAMD",
   "type": "ADaM",
   "tier": 3,
   "label": "ADRSHAMD",
   "sublabel": "BDS",
   "title": "ADRSHAMD — BDS (RS)",
   "status": null,
   "unresolved": false,
   "absent": false,
   "isFigure": false,
   "meta": {
    "klass": "BDS",
    "sdtm_source": [
     "RS"
    ],
    "used_by_tables": [
     "14-2.02"
    ],
    "derivation_requirements": [
     "Day-based analysis-visit windowing that never drops unscheduled/ET visits"
    ],
    "parameters": [
     {
      "paramcd": "HAMD118",
      "param": "HAMD 17 Total Score",
      "note": "RSCAT='HAMD 17'."
     }
    ],
    "variables": [
     {
      "name": "AVAL",
      "role": "analysis value",
      "source": "",
      "source_domains": []
     },
     {
      "name": "PARAMCD",
      "role": "parameter code",
      "source": "",
      "source_domains": []
     },
     {
      "name": "PARAM",
      "role": "parameter",
      "source": "",
      "source_domains": []
     },
     {
      "name": "AVISIT",
      "role": "analysis visit",
      "source": "",
      "source_domains": []
     },
     {
      "name": "AVISITN",
      "role": "analysis visit number",
      "source": "",
      "source_domains": []
     },
     {
      "name": "ADY",
      "role": "analysis day",
      "source": "",
      "source_domains": []
     },
     {
      "name": "ABLFL",
      "role": "baseline record flag",
      "source": "",
      "source_domains": []
     },
     {
      "name": "TRTP",
      "role": "planned treatment",
      "source": "ADSL.TRT01P",
      "source_domains": [
       "*ADSL*"
      ]
     },
     {
      "name": "ITTFL",
      "role": "ITT population",
      "source": "ADSL",
      "source_domains": [
       "*ADSL*"
      ]
     },
     {
      "name": "SITEGR1",
      "role": "pooled site group",
      "source": "ADSL",
      "source_domains": [
       "*ADSL*"
      ]
     }
    ],
    "notes": [
     "*** NO POST-BASELINE DATA *** RS collects HAMD 17 only at BASELINE and EARLY DISCONTINUATION RETRIEVAL. There are no scheduled post-baseline visits, so BASE/CHG/LOCF are NOT derivable and MANDATORY-2 does not apply. Baseline records only; consumed by the §14-2 baseline table T-14-2.02."
    ]
   }
  },
  {
   "id": "adam:ADAE",
   "type": "ADaM",
   "tier": 3,
   "label": "ADAE",
   "sublabel": "OCCDS",
   "title": "ADAE — OCCDS (AE)",
   "status": null,
   "unresolved": false,
   "absent": false,
   "isFigure": false,
   "meta": {
    "klass": "OCCDS",
    "sdtm_source": [
     "AE"
    ],
    "used_by_tables": [
     "14-1",
     "14-5.01",
     "14-5.02",
     "14-5.03",
     "14-5.04",
     "14-5.05",
     "14-5.06"
    ],
    "derivation_requirements": [],
    "parameters": [],
    "variables": [
     {
      "name": "USUBJID",
      "role": "subject",
      "source": "",
      "source_domains": []
     },
     {
      "name": "AESEQ",
      "role": "AE sequence",
      "source": "",
      "source_domains": []
     },
     {
      "name": "AETERM",
      "role": "reported term",
      "source": "",
      "source_domains": []
     },
     {
      "name": "AEDECOD",
      "role": "preferred term",
      "source": "AE.AEDECOD",
      "source_domains": [
       "AE"
      ]
     },
     {
      "name": "AESOC",
      "role": "system organ class",
      "source": "AE.AESOC",
      "source_domains": [
       "AE"
      ]
     },
     {
      "name": "AESOCCD",
      "role": "SOC code",
      "source": "AE.AESOCCD",
      "source_domains": [
       "AE"
      ]
     },
     {
      "name": "ASEV",
      "role": "analysis severity",
      "source": "AE.AESEV",
      "source_domains": [
       "AE"
      ]
     },
     {
      "name": "AESER",
      "role": "serious flag",
      "source": "AE.AESER",
      "source_domains": [
       "AE"
      ]
     },
     {
      "name": "AREL",
      "role": "analysis relationship",
      "source": "AE.AEREL",
      "source_domains": [
       "AE"
      ]
     },
     {
      "name": "AEACN",
      "role": "action taken",
      "source": "AE.AEACN",
      "source_domains": [
       "AE"
      ]
     },
     {
      "name": "AEOUT",
      "role": "outcome",
      "source": "AE.AEOUT",
      "source_domains": [
       "AE"
      ]
     },
     {
      "name": "ASTDT",
      "role": "analysis start date",
      "source": "AE.AESTDTC",
      "source_domains": [
       "AE"
      ]
     },
     {
      "name": "AENDT",
      "role": "analysis end date",
      "source": "AE.AEENDTC",
      "source_domains": [
       "AE"
      ]
     },
     {
      "name": "ASTDY",
      "role": "analysis start day",
      "source": "AE.AESTDY",
      "source_domains": [
       "AE"
      ]
     },
     {
      "name": "TRTEMFL",
      "role": "treatment-emergent flag",
      "source": "derived",
      "source_domains": []
     },
     {
      "name": "AOCC01FL",
      "role": "first occurrence of maximum severity per subject per PT",
      "source": "derived",
      "source_domains": []
     },
     {
      "name": "AOCCFL",
      "role": "first occurrence per subject",
      "source": "derived",
      "source_domains": []
     },
     {
      "name": "TRTP",
      "role": "planned treatment",
      "source": "ADSL.TRT01P",
      "source_domains": [
       "*ADSL*"
      ]
     },
     {
      "name": "SAFFL",
      "role": "safety population",
      "source": "ADSL",
      "source_domains": [
       "*ADSL*"
      ]
     }
    ],
    "notes": [
     "74 AE records. AESER='Y' on 4; AEACN='DRUG WITHDRAWN' present; AEOUT='FATAL' present.",
     "Reconcile AEOUT='FATAL' subject count against ADSL.DTHFL (3) and report any mismatch."
    ]
   }
  },
  {
   "id": "adam:ADLB",
   "type": "ADaM",
   "tier": 3,
   "label": "ADLB",
   "sublabel": "BDS",
   "title": "ADLB — BDS (LB)",
   "status": null,
   "unresolved": false,
   "absent": false,
   "isFigure": false,
   "meta": {
    "klass": "BDS",
    "sdtm_source": [
     "LB"
    ],
    "used_by_tables": [
     "14-6.01",
     "14-6.02",
     "14-6.03",
     "14-6.04",
     "14-6.05",
     "14-6.06"
    ],
    "derivation_requirements": [
     "Day-based analysis-visit windowing that never drops unscheduled/ET visits",
     "LOCF record creation at the endpoint visit"
    ],
    "parameters": [
     {
      "paramcd": "<LBTESTCD>",
      "param": "<LBTEST>",
      "note": "CHEMISTRY: ALB ALP ALT AST BILI CA CHOL CK CL CREAT GGT GLUC K PHOS PROT SODIUM TSH URATE UREAN VITB12. HEMATOLOGY: BASO EOS HCT HGB LYM MCH MCHC MCV MONO PLAT RBC WBC. URINALYSIS: PH SPGRAV UROBIL. OTHER (QUALITATIVE, EXCLUDE from continuous summaries): ANISO COLOR KETONES MACROCY POIKILO."
     },
     {
      "paramcd": "ALT/AST/BILI/ALP",
      "param": "Hy's Law components",
      "note": "All four present — the criterion is derivable."
     }
    ],
    "variables": [
     {
      "name": "AVAL",
      "role": "analysis value",
      "source": "",
      "source_domains": []
     },
     {
      "name": "BASE",
      "role": "baseline value",
      "source": "derived from ABLFL record",
      "source_domains": []
     },
     {
      "name": "CHG",
      "role": "change from baseline",
      "source": "derived",
      "source_domains": []
     },
     {
      "name": "PCHG",
      "role": "percent change from baseline",
      "source": "derived",
      "source_domains": []
     },
     {
      "name": "ADY",
      "role": "analysis day",
      "source": "derived",
      "source_domains": []
     },
     {
      "name": "AVISIT",
      "role": "analysis visit (windowed)",
      "source": "derived",
      "source_domains": []
     },
     {
      "name": "AVISITN",
      "role": "analysis visit number",
      "source": "derived",
      "source_domains": []
     },
     {
      "name": "ABLFL",
      "role": "baseline record flag",
      "source": "derived",
      "source_domains": []
     },
     {
      "name": "ANL01FL",
      "role": "primary analysis record flag (observed OR LOCF)",
      "source": "derived",
      "source_domains": []
     },
     {
      "name": "ANL02FL",
      "role": "observed-cases record flag (DTYPE='' only)",
      "source": "derived",
      "source_domains": []
     },
     {
      "name": "DTYPE",
      "role": "derivation type: '' or 'LOCF'",
      "source": "derived",
      "source_domains": []
     },
     {
      "name": "TRTP",
      "role": "planned treatment (grouping)",
      "source": "ADSL.TRT01P",
      "source_domains": [
       "*ADSL*"
      ]
     },
     {
      "name": "TRT01PN",
      "role": "numeric planned dose",
      "source": "ADSL.TRT01PN",
      "source_domains": [
       "*ADSL*"
      ]
     },
     {
      "name": "SITEGR1",
      "role": "pooled site group",
      "source": "ADSL",
      "source_domains": [
       "*ADSL*"
      ]
     },
     {
      "name": "EFFFL",
      "role": "efficacy population",
      "source": "ADSL",
      "source_domains": [
       "*ADSL*"
      ]
     },
     {
      "name": "ITTFL",
      "role": "ITT population",
      "source": "ADSL",
      "source_domains": [
       "*ADSL*"
      ]
     },
     {
      "name": "SAFFL",
      "role": "safety population",
      "source": "ADSL",
      "source_domains": [
       "*ADSL*"
      ]
     },
     {
      "name": "PARAMCD",
      "role": "parameter code",
      "source": "",
      "source_domains": []
     },
     {
      "name": "PARAM",
      "role": "parameter",
      "source": "",
      "source_domains": []
     },
     {
      "name": "PARCAT1",
      "role": "lab category",
      "source": "LB.LBCAT",
      "source_domains": [
       "LB"
      ]
     },
     {
      "name": "AVALU",
      "role": "unit",
      "source": "LB.LBSTRESU",
      "source_domains": [
       "LB"
      ]
     },
     {
      "name": "ANRLO",
      "role": "analysis normal range low",
      "source": "LB.LBSTNRLO",
      "source_domains": [
       "LB"
      ]
     },
     {
      "name": "ANRHI",
      "role": "analysis normal range high",
      "source": "LB.LBSTNRHI",
      "source_domains": [
       "LB"
      ]
     },
     {
      "name": "ANRIND",
      "role": "analysis reference-range indicator",
      "source": "LB.LBNRIND",
      "source_domains": [
       "LB"
      ]
     },
     {
      "name": "BNRIND",
      "role": "baseline reference-range indicator",
      "source": "derived",
      "source_domains": []
     },
     {
      "name": "WORSTFL",
      "role": "worst post-baseline reference-range indicator per subject per parameter",
      "source": "derived",
      "source_domains": []
     },
     {
      "name": "CRIT1",
      "role": "Hy's Law criterion text",
      "source": "derived",
      "source_domains": []
     },
     {
      "name": "CRIT1FL",
      "role": "Hy's Law criterion met flag",
      "source": "derived",
      "source_domains": []
     },
     {
      "name": "CSCFL",
      "role": "clinically significant change flag",
      "source": "derived",
      "source_domains": []
     }
    ],
    "notes": [
     "3488 records. LB is the domain with explicit unscheduled visits — MANDATORY-1 is load-bearing here.",
     "Restrict continuous summaries to parameters with a numeric LBSTRESN."
    ]
   }
  },
  {
   "id": "adam:ADVS",
   "type": "ADaM",
   "tier": 3,
   "label": "ADVS",
   "sublabel": "BDS",
   "title": "ADVS — BDS (VS)",
   "status": null,
   "unresolved": false,
   "absent": false,
   "isFigure": false,
   "meta": {
    "klass": "BDS",
    "sdtm_source": [
     "VS"
    ],
    "used_by_tables": [
     "14-7.01",
     "14-7.02",
     "14-7.03"
    ],
    "derivation_requirements": [
     "Day-based analysis-visit windowing that never drops unscheduled/ET visits",
     "LOCF record creation at the endpoint visit"
    ],
    "parameters": [
     {
      "paramcd": "SYSBPST",
      "param": "Systolic Blood Pressure, Standing",
      "note": null
     },
     {
      "paramcd": "SYSBPSU",
      "param": "Systolic Blood Pressure, Supine",
      "note": null
     },
     {
      "paramcd": "DIABPST",
      "param": "Diastolic Blood Pressure, Standing",
      "note": null
     },
     {
      "paramcd": "DIABPSU",
      "param": "Diastolic Blood Pressure, Supine",
      "note": null
     },
     {
      "paramcd": "PULSEST",
      "param": "Pulse Rate, Standing",
      "note": null
     },
     {
      "paramcd": "PULSESU",
      "param": "Pulse Rate, Supine",
      "note": null
     },
     {
      "paramcd": "TEMP",
      "param": "Temperature",
      "note": null
     },
     {
      "paramcd": "WEIGHT",
      "param": "Weight",
      "note": null
     },
     {
      "paramcd": "HEIGHT",
      "param": "Height",
      "note": "Baseline only; feeds ADSL.HEIGHTBL/BMIBL, not a safety table."
     }
    ],
    "variables": [
     {
      "name": "AVAL",
      "role": "analysis value",
      "source": "",
      "source_domains": []
     },
     {
      "name": "BASE",
      "role": "baseline value",
      "source": "derived from ABLFL record",
      "source_domains": []
     },
     {
      "name": "CHG",
      "role": "change from baseline",
      "source": "derived",
      "source_domains": []
     },
     {
      "name": "PCHG",
      "role": "percent change from baseline",
      "source": "derived",
      "source_domains": []
     },
     {
      "name": "ADY",
      "role": "analysis day",
      "source": "derived",
      "source_domains": []
     },
     {
      "name": "AVISIT",
      "role": "analysis visit (windowed)",
      "source": "derived",
      "source_domains": []
     },
     {
      "name": "AVISITN",
      "role": "analysis visit number",
      "source": "derived",
      "source_domains": []
     },
     {
      "name": "ABLFL",
      "role": "baseline record flag",
      "source": "derived",
      "source_domains": []
     },
     {
      "name": "ANL01FL",
      "role": "primary analysis record flag (observed OR LOCF)",
      "source": "derived",
      "source_domains": []
     },
     {
      "name": "ANL02FL",
      "role": "observed-cases record flag (DTYPE='' only)",
      "source": "derived",
      "source_domains": []
     },
     {
      "name": "DTYPE",
      "role": "derivation type: '' or 'LOCF'",
      "source": "derived",
      "source_domains": []
     },
     {
      "name": "TRTP",
      "role": "planned treatment (grouping)",
      "source": "ADSL.TRT01P",
      "source_domains": [
       "*ADSL*"
      ]
     },
     {
      "name": "TRT01PN",
      "role": "numeric planned dose",
      "source": "ADSL.TRT01PN",
      "source_domains": [
       "*ADSL*"
      ]
     },
     {
      "name": "SITEGR1",
      "role": "pooled site group",
      "source": "ADSL",
      "source_domains": [
       "*ADSL*"
      ]
     },
     {
      "name": "EFFFL",
      "role": "efficacy population",
      "source": "ADSL",
      "source_domains": [
       "*ADSL*"
      ]
     },
     {
      "name": "ITTFL",
      "role": "ITT population",
      "source": "ADSL",
      "source_domains": [
       "*ADSL*"
      ]
     },
     {
      "name": "SAFFL",
      "role": "safety population",
      "source": "ADSL",
      "source_domains": [
       "*ADSL*"
      ]
     },
     {
      "name": "PARAMCD",
      "role": "parameter code",
      "source": "",
      "source_domains": []
     },
     {
      "name": "PARAM",
      "role": "parameter",
      "source": "",
      "source_domains": []
     },
     {
      "name": "AVALU",
      "role": "unit",
      "source": "VS.VSSTRESU",
      "source_domains": [
       "VS"
      ]
     },
     {
      "name": "ATPT",
      "role": "position",
      "source": "VS.VSPOS",
      "source_domains": [
       "VS"
      ]
     }
    ],
    "notes": [
     "*** POSITION MUST BE IN PARAMCD *** SYSBP/DIABP/PULSE are each measured STANDING and SUPINE. Collapsing across VSPOS would average two different measurements. USDM endpoint END4 explicitly names 'standing and supine blood pressure'.",
     "1414 records across SCREENING 1 .. WEEK 26 plus EARLY DISCONTINUATION RETRIEVAL."
    ]
   }
  },
  {
   "id": "adam:ADEX",
   "type": "ADaM",
   "tier": 3,
   "label": "ADEX",
   "sublabel": "BDS",
   "title": "ADEX — BDS (EX, EC)",
   "status": null,
   "unresolved": false,
   "absent": false,
   "isFigure": false,
   "meta": {
    "klass": "BDS",
    "sdtm_source": [
     "EX",
     "EC"
    ],
    "used_by_tables": [
     "14-4.01"
    ],
    "derivation_requirements": [],
    "parameters": [
     {
      "paramcd": "TRTDUR",
      "param": "Duration of Exposure (days)",
      "note": "last EXENDT - first EXSTDT + 1"
     },
     {
      "paramcd": "CUMDOSE",
      "param": "Cumulative Dose (mg)",
      "note": "sum of EXDOSE over all exposure records"
     },
     {
      "paramcd": "AVGDD",
      "param": "Average Daily Dose (mg/day)",
      "note": "CUMDOSE / TRTDUR"
     }
    ],
    "variables": [
     {
      "name": "AVAL",
      "role": "analysis value",
      "source": "",
      "source_domains": []
     },
     {
      "name": "PARAMCD",
      "role": "parameter code",
      "source": "",
      "source_domains": []
     },
     {
      "name": "PARAM",
      "role": "parameter",
      "source": "",
      "source_domains": []
     },
     {
      "name": "EXDURGR1",
      "role": "exposure duration category",
      "source": "derived",
      "source_domains": []
     },
     {
      "name": "TRTP",
      "role": "planned treatment",
      "source": "ADSL.TRT01P",
      "source_domains": [
       "*ADSL*"
      ]
     },
     {
      "name": "SAFFL",
      "role": "safety population",
      "source": "ADSL",
      "source_domains": [
       "*ADSL*"
      ]
     }
    ],
    "notes": [
     "EX has 1583 records (EXTRT ZANOMALINE / PLACEBO). EC (1590 records, as-collected) is retained as a cross-check on ECOCCUR but EX is the derivation source."
    ]
   }
  },
  {
   "id": "adam:ADCM",
   "type": "ADaM",
   "tier": 3,
   "label": "ADCM",
   "sublabel": "OCCDS",
   "title": "ADCM — OCCDS (CM)",
   "status": null,
   "unresolved": false,
   "absent": false,
   "isFigure": false,
   "meta": {
    "klass": "OCCDS",
    "sdtm_source": [
     "CM"
    ],
    "used_by_tables": [
     "14-7.04"
    ],
    "derivation_requirements": [],
    "parameters": [],
    "variables": [
     {
      "name": "USUBJID",
      "role": "subject",
      "source": "",
      "source_domains": []
     },
     {
      "name": "CMTRT",
      "role": "reported medication (verbatim)",
      "source": "CM.CMTRT",
      "source_domains": [
       "CM"
      ]
     },
     {
      "name": "CMINDC",
      "role": "indication",
      "source": "CM.CMINDC",
      "source_domains": [
       "CM"
      ]
     },
     {
      "name": "CMDOSE",
      "role": "dose",
      "source": "CM.CMDOSE",
      "source_domains": [
       "CM"
      ]
     },
     {
      "name": "ASTDT",
      "role": "analysis start date",
      "source": "CM.CMSTDTC",
      "source_domains": [
       "CM"
      ]
     },
     {
      "name": "AENDT",
      "role": "analysis end date",
      "source": "CM.CMENDTC",
      "source_domains": [
       "CM"
      ]
     },
     {
      "name": "AOCCFL",
      "role": "first occurrence per subject per verbatim term",
      "source": "derived",
      "source_domains": []
     },
     {
      "name": "TRTP",
      "role": "planned treatment",
      "source": "ADSL.TRT01P",
      "source_domains": [
       "*ADSL*"
      ]
     },
     {
      "name": "SAFFL",
      "role": "safety population",
      "source": "ADSL",
      "source_domains": [
       "*ADSL*"
      ]
     }
    ],
    "notes": [
     "*** NOT WHO-DD CODED *** No CMDECOD, no CMCLAS/CMATC in this extract. The conventional therapeutic-class hierarchy is NOT derivable; T-14-7.04 must summarize verbatim CMTRT and footnote the absence of coding. 68 records across 14 subjects."
    ]
   }
  },
  {
   "id": "adam:ADTTE",
   "type": "ADaM",
   "tier": 3,
   "label": "ADTTE",
   "sublabel": "TTE",
   "title": "ADTTE — TTE (FA, AE, DM, EX)",
   "status": null,
   "unresolved": false,
   "absent": false,
   "isFigure": false,
   "meta": {
    "klass": "TTE",
    "sdtm_source": [
     "FA",
     "AE",
     "DM",
     "EX"
    ],
    "used_by_tables": [
     "14-1"
    ],
    "derivation_requirements": [],
    "parameters": [
     {
      "paramcd": "TTISR",
      "param": "Time to First Injection-Site Reaction",
      "note": "AVAL = first FADTC with an occurrence result, minus TRTSDT, +1. Subjects with no reaction are censored (CNSR=1) at their last on-study day."
     }
    ],
    "variables": [
     {
      "name": "AVAL",
      "role": "time to event (days)",
      "source": "",
      "source_domains": []
     },
     {
      "name": "CNSR",
      "role": "censoring indicator",
      "source": "derived",
      "source_domains": []
     },
     {
      "name": "PARAMCD",
      "role": "parameter code",
      "source": "",
      "source_domains": []
     },
     {
      "name": "PARAM",
      "role": "parameter",
      "source": "",
      "source_domains": []
     },
     {
      "name": "STARTDT",
      "role": "time origin",
      "source": "ADSL.TRTSDT",
      "source_domains": [
       "*ADSL*"
      ]
     },
     {
      "name": "ADT",
      "role": "event or censoring date",
      "source": "derived",
      "source_domains": []
     },
     {
      "name": "EVNTDESC",
      "role": "event description",
      "source": "derived",
      "source_domains": []
     },
     {
      "name": "CNSDTDSC",
      "role": "censoring description",
      "source": "derived",
      "source_domains": []
     },
     {
      "name": "TRTP",
      "role": "planned treatment",
      "source": "ADSL.TRT01P",
      "source_domains": [
       "*ADSL*"
      ]
     },
     {
      "name": "SAFFL",
      "role": "safety population",
      "source": "ADSL",
      "source_domains": [
       "*ADSL*"
      ]
     }
    ],
    "notes": [
     "The USDM endpoint END3 describes a transdermal APPLICATION-site signal; the delivered study is a SUBCUTANEOUS INJECTION with an FA domain of category 'INJECTION SITE REACTION'. Derivation follows the delivered route; record as a reporting deviation.",
     "FA carries FATESTCD 'Occurrence Indicator' and 'Severity/Intensity' with FAOBJ naming the reaction."
    ]
   }
  },
  {
   "id": "tlf:reg-populations-summary",
   "type": "TLF",
   "tier": 2,
   "label": "T-14-1.01",
   "sublabel": "Summary of Populations",
   "title": "Summary of Populations",
   "status": "generated",
   "unresolved": false,
   "absent": false,
   "isFigure": false,
   "meta": {
    "candidate_id": "reg-populations-summary",
    "final_id": "T-14-1.01",
    "dir_id": "T-14-1.01",
    "type": "Table",
    "category": "disposition",
    "cat_label": "Disposition / Populations",
    "title": "Summary of Populations",
    "status": "generated",
    "status_reason": null,
    "priority": "supportive",
    "produced_by": "regulatory-scaffolding-planner",
    "notes": [
     "Defines analysis-set denominators (ITT/Safety/Efficacy/Completers) for all other tables.",
     "Comparative study (3 arms): between-group column included; no inferential p-value on an accounting table."
    ],
    "method": "Descriptive",
    "population": "All Subjects",
    "timepoint": null,
    "imputation": "none",
    "subgroup": null,
    "comparison": null,
    "objectives": [],
    "endpoints": [],
    "regulatory_rule": "ICH E3 §11.1",
    "adam": [
     "ADSL"
    ],
    "sdtm": [
     "DM",
     "DS"
    ],
    "analysisSet": "All Enrolled Subjects",
    "analysisSetCond": "(no analysis-flag filter; all ADSL records)",
    "dataSubset": "(all records)",
    "purpose": "ICH E3 §11.1 analysis-set accounting; defines the denominators every other table cites.",
    "generatedMd": "# 14-1.01  Summary of Populations\n\n**Protocol:** CDISCPILOT01  |  **Population:** All Enrolled Subjects  |  **Reason:** CONVENTION\n\n**Analysis set:** `(no analysis-flag filter; all ADSL records)`  —  Placebo N=86, Zanomaline Low N=0, Zanomaline High N=0, Total N=86\n\nDenominator is all enrolled subjects with a planned arm. This table defines the analysis-set denominators every other display cites.\n\n| Category | Placebo (N=86) | Zanomaline Low Dose (54 mg) (N=0) | Zanomaline High Dose (81 mg) (N=0) |\n|---|---|---|---|\n| **Intent-to-Treat population** |  |  |  |\n| &nbsp;&nbsp;Y | 86 (100.0%) | 0 (-%) | 0 (-%) |\n| **Safety population** |  |  |  |\n| &nbsp;&nbsp;Y | 86 (100.0%) | 0 (-%) | 0 (-%) |\n| **Efficacy population** |  |  |  |\n| &nbsp;&nbsp;N | 86 (100.0%) | 0 (-%) | 0 (-%) |\n| **Completers population** |  |  |  |\n| &nbsp;&nbsp;N | 28 (32.6%) | 0 (-%) | 0 (-%) |\n| &nbsp;&nbsp;Y | 58 (67.4%) | 0 (-%) | 0 (-%) |\n\n---\n\n### Notes\n\n- Percent denominator is the number of enrolled subjects (all ADSL records), by treatment group.\n- N-GATE CAVEAT: this study has 17 randomized subjects (Placebo 5 / Low 5 / High 7). All inferential statistics are illustrative and must not be interpreted.\n- All values computed from ADaM via the persisted ARD (`ard.csv`); no value is hand-entered.\n- Rounding: SAS convention (half away from zero), applied at display time only.\n\n> **N-GATE WARNING.** This study randomized 17 subjects (Placebo 5 / Zanomaline Low 5 / Zanomaline High 7). Every inferential statistic in this display is **illustrative only** and must not be interpreted as evidence of effect or of absence of effect.\n",
    "ardJson": "[{\"group1\":\"Placebo\",\"variable\":\"ITTFL\",\"variable_level\":\"Y\",\"context\":\"frequency\",\"stat_name\":\"n\",\"stat\":86},{\"group1\":\"Placebo\",\"variable\":\"ITTFL\",\"variable_level\":\"Y\",\"context\":\"frequency\",\"stat_name\":\"pct\",\"stat\":100},{\"group1\":\"Zanomaline Low Dose (54 mg)\",\"variable\":\"ITTFL\",\"variable_level\":\"Y\",\"context\":\"frequency\",\"stat_name\":\"n\",\"stat\":0},{\"group1\":\"Zanomaline Low Dose (54 mg)\",\"variable\":\"ITTFL\",\"variable_level\":\"Y\",\"context\":\"frequency\",\"stat_name\":\"pct\",\"stat\":null},{\"group1\":\"Zanomaline High Dose (81 mg)\",\"variable\":\"ITTFL\",\"variable_level\":\"Y\",\"context\":\"frequency\",\"stat_name\":\"n\",\"stat\":0},{\"group1\":\"Zanomaline High Dose (81 mg)\",\"variable\":\"ITTFL\",\"variable_level\":\"Y\",\"context\":\"frequency\",\"stat_name\":\"pct\",\"stat\":null},{\"group1\":\"Placebo\",\"variable\":\"SAFFL\",\"variable_level\":\"Y\",\"context\":\"frequency\",\"stat_name\":\"n\",\"stat\":86},{\"group1\":\"Placebo\",\"variable\":\"SAFFL\",\"variable_level\":\"Y\",\"context\":\"frequency\",\"stat_name\":\"pct\",\"stat\":100},{\"group1\":\"Zanomaline Low Dose (54 mg)\",\"variable\":\"SAFFL\",\"variable_level\":\"Y\",\"context\":\"frequency\",\"stat_name\":\"n\",\"stat\":0},{\"group1\":\"Zanomaline Low Dose (54 mg)\",\"variable\":\"SAFFL\",\"variable_level\":\"Y\",\"context\":\"frequency\",\"stat_name\":\"pct\",\"stat\":null},{\"group1\":\"Zanomaline High Dose (81 mg)\",\"variable\":\"SAFFL\",\"variable_level\":\"Y\",\"context\":\"frequency\",\"stat_name\":\"n\",\"stat\":0},{\"group1\":\"Zanomaline High Dose (81 mg)\",\"variable\":\"SAFFL\",\"variable_level\":\"Y\",\"context\":\"frequency\",\"stat_name\":\"pct\",\"stat\":null},{\"group1\":\"Placebo\",\"variable\":\"EFFFL\",\"variable_level\":\"N\",\"context\":\"frequency\",\"stat_name\":\"n\",\"stat\":86},{\"group1\":\"Placebo\",\"variable\":\"EFFFL\",\"variable_level\":\"N\",\"context\":\"frequency\",\"stat_name\":\"pct\",\"stat\":100},{\"group1\":\"Zanomaline Low Dose (54 mg)\",\"variable\":\"EFFFL\",\"variable_level\":\"N\",\"context\":\"frequency\",\"stat_name\":\"n\",\"stat\":0},{\"group1\":\"Zanomaline Low Dose (54 mg)\",\"variable\":\"EFFFL\",\"variable_level\":\"N\",\"context\":\"frequency\",\"stat_name\":\"pct\",\"stat\":null},{\"group1\":\"Zanomaline High Dose (81 mg)\",\"variable\":\"EFFFL\",\"variable_level\":\"N\",\"context\":\"frequency\",\"stat_name\":\"n\",\"stat\":0},{\"group1\":\"Zanomaline High Dose (81 mg)\",\"variable\":\"EFFFL\",\"variable_level\":\"N\",\"context\":\"frequency\",\"stat_name\":\"pct\",\"stat\":null},{\"group1\":\"Placebo\",\"variable\":\"COMPLFL\",\"variable_level\":\"N\",\"context\":\"frequency\",\"stat_name\":\"n\",\"stat\":28},{\"group1\":\"Placebo\",\"variable\":\"COMPLFL\",\"variable_level\":\"N\",\"context\":\"frequency\",\"stat_name\":\"pct\",\"stat\":32.5581},{\"group1\":\"Zanomaline Low Dose (54 mg)\",\"variable\":\"COMPLFL\",\"variable_level\":\"N\",\"context\":\"frequency\",\"stat_name\":\"n\",\"stat\":0},{\"group1\":\"Zanomaline Low Dose (54 mg)\",\"variable\":\"COMPLFL\",\"variable_level\":\"N\",\"context\":\"frequency\",\"stat_name\":\"pct\",\"stat\":null},{\"group1\":\"Zanomaline High Dose (81 mg)\",\"variable\":\"COMPLFL\",\"variable_level\":\"N\",\"context\":\"frequency\",\"stat_name\":\"n\",\"stat\":0},{\"group1\":\"Zanomaline High Dose (81 mg)\",\"variable\":\"COMPLFL\",\"variable_level\":\"N\",\"context\":\"frequency\",\"stat_name\":\"pct\",\"stat\":null},{\"group1\":\"Placebo\",\"variable\":\"COMPLFL\",\"variable_level\":\"Y\",\"context\":\"frequency\",\"stat_name\":\"n\",\"stat\":58},{\"group1\":\"Placebo\",\"variable\":\"COMPLFL\",\"variable_level\":\"Y\",\"context\":\"frequency\",\"stat_name\":\"pct\",\"stat\":67.4419},{\"group1\":\"Zanomaline Low Dose (54 mg)\",\"variable\":\"COMPLFL\",\"variable_level\":\"Y\",\"context\":\"frequency\",\"stat_name\":\"n\",\"stat\":0},{\"group1\":\"Zanomaline Low Dose (54 mg)\",\"variable\":\"COMPLFL\",\"variable_level\":\"Y\",\"context\":\"frequency\",\"stat_name\":\"pct\",\"stat\":null},{\"group1\":\"Zanomaline High Dose (81 mg)\",\"variable\":\"COMPLFL\",\"variable_level\":\"Y\",\"context\":\"frequency\",\"stat_name\":\"n\",\"stat\":0},{\"group1\":\"Zanomaline High Dose (81 mg)\",\"variable\":\"COMPLFL\",\"variable_level\":\"Y\",\"context\":\"frequency\",\"stat_name\":\"pct\",\"stat\":null}]\n",
    "generateR": null,
    "generateRPath": null,
    "isFigure": false,
    "figurePng": null
   }
  },
  {
   "id": "tlf:reg-disposition-eos",
   "type": "TLF",
   "tier": 2,
   "label": "T-14-1.02",
   "sublabel": "Summary of End of Study Data",
   "title": "Summary of End of Study Data",
   "status": "generated",
   "unresolved": false,
   "absent": false,
   "isFigure": false,
   "meta": {
    "candidate_id": "reg-disposition-eos",
    "final_id": "T-14-1.02",
    "dir_id": "T-14-1.02",
    "type": "Table",
    "category": "disposition",
    "cat_label": "Disposition / Populations",
    "title": "Summary of End of Study Data",
    "status": "generated",
    "status_reason": null,
    "priority": "supportive",
    "produced_by": "regulatory-scaffolding-planner",
    "notes": [
     "Completion vs early termination with reason. SDTM DS carries 7 DSDECOD reasons incl. 5 DEATH and 13 ADVERSE EVENT records."
    ],
    "method": "Descriptive",
    "population": "Intent-to-Treat",
    "timepoint": null,
    "imputation": "none",
    "subgroup": null,
    "comparison": "by treatment group",
    "objectives": [],
    "endpoints": [],
    "regulatory_rule": "ICH E3 §10.1",
    "adam": [
     "ADSL"
    ],
    "sdtm": [
     "DM",
     "DS"
    ],
    "analysisSet": "Intent-to-Treat Population",
    "analysisSetCond": "ITTFL = 'Y'",
    "dataSubset": "ITTFL = 'Y'",
    "purpose": "ICH E3 §10.1 disposition: completion vs early termination with reason.",
    "generatedMd": "# 14-1.02  Summary of End of Study Data\n\n**Protocol:** CDISCPILOT01  |  **Population:** Intent-to-Treat Population  |  **Reason:** CONVENTION\n\n**Analysis set:** `ITTFL = 'Y'`  —  Placebo N=86, Zanomaline Low N=0, Zanomaline High N=0, Total N=86\n\n| Category | Placebo (N=86) | Zanomaline Low Dose (54 mg) (N=0) | Zanomaline High Dose (81 mg) (N=0) |\n|---|---|---|---|\n| **End of study status** |  |  |  |\n| &nbsp;&nbsp;COMPLETED | 58 (67.4%) | 0 (-%) | 0 (-%) |\n| &nbsp;&nbsp;DISCONTINUED | 28 (32.6%) | 0 (-%) | 0 (-%) |\n| **Reason for discontinuation** |  |  |  |\n| &nbsp;&nbsp;ADVERSE EVENT | 8 (9.3%) | 0 (-%) | 0 (-%) |\n| &nbsp;&nbsp;COMPLETED | 58 (67.4%) | 0 (-%) | 0 (-%) |\n| &nbsp;&nbsp;DEATH | 2 (2.3%) | 0 (-%) | 0 (-%) |\n| &nbsp;&nbsp;LACK OF EFFICACY | 3 (3.5%) | 0 (-%) | 0 (-%) |\n| &nbsp;&nbsp;LOST TO FOLLOW-UP | 1 (1.2%) | 0 (-%) | 0 (-%) |\n| &nbsp;&nbsp;PHYSICIAN DECISION | 1 (1.2%) | 0 (-%) | 0 (-%) |\n| &nbsp;&nbsp;PROTOCOL VIOLATION | 2 (2.3%) | 0 (-%) | 0 (-%) |\n| &nbsp;&nbsp;STUDY TERMINATED BY SPONSOR | 2 (2.3%) | 0 (-%) | 0 (-%) |\n| &nbsp;&nbsp;WITHDRAWAL BY SUBJECT | 9 (10.5%) | 0 (-%) | 0 (-%) |\n\n---\n\n### Notes\n\n- SDTM DS carries DSDECOD values COMPLETED / ADVERSE EVENT / DEATH / LACK OF EFFICACY / PHYSICIAN DECISION / WITHDRAWAL BY SUBJECT / SCREEN FAILURE. SCREEN FAILURE is excluded by the ITT filter.\n- N-GATE CAVEAT: this study has 17 randomized subjects (Placebo 5 / Low 5 / High 7). All inferential statistics are illustrative and must not be interpreted.\n- All values computed from ADaM via the persisted ARD (`ard.csv`); no value is hand-entered.\n- Rounding: SAS convention (half away from zero), applied at display time only.\n\n> **N-GATE WARNING.** This study randomized 17 subjects (Placebo 5 / Zanomaline Low 5 / Zanomaline High 7). Every inferential statistic in this display is **illustrative only** and must not be interpreted as evidence of effect or of absence of effect.\n",
    "ardJson": "[{\"group1\":\"Placebo\",\"variable\":\"EOSSTT\",\"variable_level\":\"COMPLETED\",\"context\":\"frequency\",\"stat_name\":\"n\",\"stat\":58},{\"group1\":\"Placebo\",\"variable\":\"EOSSTT\",\"variable_level\":\"COMPLETED\",\"context\":\"frequency\",\"stat_name\":\"pct\",\"stat\":67.4419},{\"group1\":\"Zanomaline Low Dose (54 mg)\",\"variable\":\"EOSSTT\",\"variable_level\":\"COMPLETED\",\"context\":\"frequency\",\"stat_name\":\"n\",\"stat\":0},{\"group1\":\"Zanomaline Low Dose (54 mg)\",\"variable\":\"EOSSTT\",\"variable_level\":\"COMPLETED\",\"context\":\"frequency\",\"stat_name\":\"pct\",\"stat\":null},{\"group1\":\"Zanomaline High Dose (81 mg)\",\"variable\":\"EOSSTT\",\"variable_level\":\"COMPLETED\",\"context\":\"frequency\",\"stat_name\":\"n\",\"stat\":0},{\"group1\":\"Zanomaline High Dose (81 mg)\",\"variable\":\"EOSSTT\",\"variable_level\":\"COMPLETED\",\"context\":\"frequency\",\"stat_name\":\"pct\",\"stat\":null},{\"group1\":\"Placebo\",\"variable\":\"EOSSTT\",\"variable_level\":\"DISCONTINUED\",\"context\":\"frequency\",\"stat_name\":\"n\",\"stat\":28},{\"group1\":\"Placebo\",\"variable\":\"EOSSTT\",\"variable_level\":\"DISCONTINUED\",\"context\":\"frequency\",\"stat_name\":\"pct\",\"stat\":32.5581},{\"group1\":\"Zanomaline Low Dose (54 mg)\",\"variable\":\"EOSSTT\",\"variable_level\":\"DISCONTINUED\",\"context\":\"frequency\",\"stat_name\":\"n\",\"stat\":0},{\"group1\":\"Zanomaline Low Dose (54 mg)\",\"variable\":\"EOSSTT\",\"variable_level\":\"DISCONTINUED\",\"context\":\"frequency\",\"stat_name\":\"pct\",\"stat\":null},{\"group1\":\"Zanomaline High Dose (81 mg)\",\"variable\":\"EOSSTT\",\"variable_level\":\"DISCONTINUED\",\"context\":\"frequency\",\"stat_name\":\"n\",\"stat\":0},{\"group1\":\"Zanomaline High Dose (81 mg)\",\"variable\":\"EOSSTT\",\"variable_level\":\"DISCONTINUED\",\"context\":\"frequency\",\"stat_name\":\"pct\",\"stat\":null},{\"group1\":\"Placebo\",\"variable\":\"DCSREAS\",\"variable_level\":\"ADVERSE EVENT\",\"context\":\"frequency\",\"stat_name\":\"n\",\"stat\":8},{\"group1\":\"Placebo\",\"variable\":\"DCSREAS\",\"variable_level\":\"ADVERSE EVENT\",\"context\":\"frequency\",\"stat_name\":\"pct\",\"stat\":9.3023},{\"group1\":\"Zanomaline Low Dose (54 mg)\",\"variable\":\"DCSREAS\",\"variable_level\":\"ADVERSE EVENT\",\"context\":\"frequency\",\"stat_name\":\"n\",\"stat\":0},{\"group1\":\"Zanomaline Low Dose (54 mg)\",\"variable\":\"DCSREAS\",\"variable_level\":\"ADVERSE EVENT\",\"context\":\"frequency\",\"stat_name\":\"pct\",\"stat\":null},{\"group1\":\"Zanomaline High Dose (81 mg)\",\"variable\":\"DCSREAS\",\"variable_level\":\"ADVERSE EVENT\",\"context\":\"frequency\",\"stat_name\":\"n\",\"stat\":0},{\"group1\":\"Zanomaline High Dose (81 mg)\",\"variable\":\"DCSREAS\",\"variable_level\":\"ADVERSE EVENT\",\"context\":\"frequency\",\"stat_name\":\"pct\",\"stat\":null},{\"group1\":\"Placebo\",\"variable\":\"DCSREAS\",\"variable_level\":\"COMPLETED\",\"context\":\"frequency\",\"stat_name\":\"n\",\"stat\":58},{\"group1\":\"Placebo\",\"variable\":\"DCSREAS\",\"variable_level\":\"COMPLETED\",\"context\":\"frequency\",\"stat_name\":\"pct\",\"stat\":67.4419},{\"group1\":\"Zanomaline Low Dose (54 mg)\",\"variable\":\"DCSREAS\",\"variable_level\":\"COMPLETED\",\"context\":\"frequency\",\"stat_name\":\"n\",\"stat\":0},{\"group1\":\"Zanomaline Low Dose (54 mg)\",\"variable\":\"DCSREAS\",\"variable_level\":\"COMPLETED\",\"context\":\"frequency\",\"stat_name\":\"pct\",\"stat\":null},{\"group1\":\"Zanomaline High Dose (81 mg)\",\"variable\":\"DCSREAS\",\"variable_level\":\"COMPLETED\",\"context\":\"frequency\",\"stat_name\":\"n\",\"stat\":0},{\"group1\":\"Zanomaline High Dose (81 mg)\",\"variable\":\"DCSREAS\",\"variable_level\":\"COMPLETED\",\"context\":\"frequency\",\"stat_name\":\"pct\",\"stat\":null},{\"group1\":\"Placebo\",\"variable\":\"DCSREAS\",\"variable_level\":\"DEATH\",\"context\":\"frequency\",\"stat_name\":\"n\",\"stat\":2},{\"group1\":\"Placebo\",\"variable\":\"DCSREAS\",\"variable_level\":\"DEATH\",\"context\":\"frequency\",\"stat_name\":\"pct\",\"stat\":2.3256},{\"group1\":\"Zanomaline Low Dose (54 mg)\",\"variable\":\"DCSREAS\",\"variable_level\":\"DEATH\",\"context\":\"frequency\",\"stat_name\":\"n\",\"stat\":0},{\"group1\":\"Zanomaline Low Dose (54 mg)\",\"variable\":\"DCSREAS\",\"variable_level\":\"DEATH\",\"context\":\"frequency\",\"stat_name\":\"pct\",\"stat\":null},{\"group1\":\"Zanomaline High Dose (81 mg)\",\"variable\":\"DCSREAS\",\"variable_level\":\"DEATH\",\"context\":\"frequency\",\"stat_name\":\"n\",\"stat\":0},{\"group1\":\"Zanomaline High Dose (81 mg)\",\"variable\":\"DCSREAS\",\"variable_level\":\"DEATH\",\"context\":\"frequency\",\"stat_name\":\"pct\",\"stat\":null},{\"group1\":\"Placebo\",\"variable\":\"DCSREAS\",\"variable_level\":\"LACK OF EFFICACY\",\"context\":\"frequency\",\"stat_name\":\"n\",\"stat\":3},{\"group1\":\"Placebo\",\"variable\":\"DCSREAS\",\"variable_level\":\"LACK OF EFFICACY\",\"context\":\"frequency\",\"stat_name\":\"pct\",\"stat\":3.4884},{\"group1\":\"Zanomaline Low Dose (54 mg)\",\"variable\":\"DCSREAS\",\"variable_level\":\"LACK OF EFFICACY\",\"context\":\"frequency\",\"stat_name\":\"n\",\"stat\":0},{\"group1\":\"Zanomaline Low Dose (54 mg)\",\"variable\":\"DCSREAS\",\"variable_level\":\"LACK OF EFFICACY\",\"context\":\"frequency\",\"stat_name\":\"pct\",\"stat\":null},{\"group1\":\"Zanomaline High Dose (81 mg)\",\"variable\":\"DCSREAS\",\"variable_level\":\"LACK OF EFFICACY\",\"context\":\"frequency\",\"stat_name\":\"n\",\"stat\":0},{\"group1\":\"Zanomaline High Dose (81 mg)\",\"variable\":\"DCSREAS\",\"variable_level\":\"LACK OF EFFICACY\",\"context\":\"frequency\",\"stat_name\":\"pct\",\"stat\":null},{\"group1\":\"Placebo\",\"variable\":\"DCSREAS\",\"variable_level\":\"LOST TO FOLLOW-UP\",\"context\":\"frequency\",\"stat_name\":\"n\",\"stat\":1},{\"group1\":\"Placebo\",\"variable\":\"DCSREAS\",\"variable_level\":\"LOST TO FOLLOW-UP\",\"context\":\"frequency\",\"stat_name\":\"pct\",\"stat\":1.1628},{\"group1\":\"Zanomaline Low Dose (54 mg)\",\"variable\":\"DCSREAS\",\"variable_level\":\"LOST TO FOLLOW-UP\",\"context\":\"frequency\",\"stat_name\":\"n\",\"stat\":0},{\"group1\":\"Zanomaline Low Dose (54 mg)\",\"variable\":\"DCSREAS\",\"variable_level\":\"LOST TO FOLLOW-UP\",\"context\":\"frequency\",\"stat_name\":\"pct\",\"stat\":null},{\"group1\":\"Zanomaline High Dose (81 mg)\",\"variable\":\"DCSREAS\",\"variable_level\":\"LOST TO FOLLOW-UP\",\"context\":\"frequency\",\"stat_name\":\"n\",\"stat\":0},{\"group1\":\"Zanomaline High Dose (81 mg)\",\"variable\":\"DCSREAS\",\"variable_level\":\"LOST TO FOLLOW-UP\",\"context\":\"frequency\",\"stat_name\":\"pct\",\"stat\":null},{\"group1\":\"Placebo\",\"variable\":\"DCSREAS\",\"variable_level\":\"PHYSICIAN DECISION\",\"context\":\"frequency\",\"stat_name\":\"n\",\"stat\":1},{\"group1\":\"Placebo\",\"variable\":\"DCSREAS\",\"variable_level\":\"PHYSICIAN DECISION\",\"context\":\"frequency\",\"stat_name\":\"pct\",\"stat\":1.1628},{\"group1\":\"Zanomaline Low Dose (54 mg)\",\"variable\":\"DCSREAS\",\"variable_level\":\"PHYSICIAN DECISION\",\"context\":\"frequency\",\"stat_name\":\"n\",\"stat\":0},{\"group1\":\"Zanomaline Low Dose (54 mg)\",\"variable\":\"DCSREAS\",\"variable_level\":\"PHYSICIAN DECISION\",\"context\":\"frequency\",\"stat_name\":\"pct\",\"stat\":null},{\"group1\":\"Zanomaline High Dose (81 mg)\",\"variable\":\"DCSREAS\",\"variable_level\":\"PHYSICIAN DECISION\",\"context\":\"frequency\",\"stat_name\":\"n\",\"stat\":0},{\"group1\":\"Zanomaline High Dose (81 mg)\",\"variable\":\"DCSREAS\",\"variable_level\":\"PHYSICIAN DECISION\",\"context\":\"frequency\",\"stat_name\":\"pct\",\"stat\":null},{\"group1\":\"Placebo\",\"variable\":\"DCSREAS\",\"variable_level\":\"PROTOCOL VIOLATION\",\"context\":\"frequency\",\"stat_name\":\"n\",\"stat\":2},{\"group1\":\"Placebo\",\"variable\":\"DCSREAS\",\"variable_level\":\"PROTOCOL VIOLATION\",\"context\":\"frequency\",\"stat_name\":\"pct\",\"stat\":2.3256},{\"group1\":\"Zanomaline Low Dose (54 mg)\",\"variable\":\"DCSREAS\",\"variable_level\":\"PROTOCOL VIOLATION\",\"context\":\"frequency\",\"stat_name\":\"n\",\"stat\":0},{\"group1\":\"Zanomaline Low Dose (54 mg)\",\"variable\":\"DCSREAS\",\"variable_level\":\"PROTOCOL VIOLATION\",\"context\":\"frequency\",\"stat_name\":\"pct\",\"stat\":null},{\"group1\":\"Zanomaline High Dose (81 mg)\",\"variable\":\"DCSREAS\",\"variable_level\":\"PROTOCOL VIOLATION\",\"context\":\"frequency\",\"stat_name\":\"n\",\"stat\":0},{\"group1\":\"Zanomaline High Dose (81 mg)\",\"variable\":\"DCSREAS\",\"variable_level\":\"PROTOCOL VIOLATION\",\"context\":\"frequency\",\"stat_name\":\"pct\",\"stat\":null},{\"group1\":\"Placebo\",\"variable\":\"DCSREAS\",\"variable_level\":\"STUDY TERMINATED BY SPONSOR\",\"context\":\"frequency\",\"stat_name\":\"n\",\"stat\":2},{\"group1\":\"Placebo\",\"variable\":\"DCSREAS\",\"variable_level\":\"STUDY TERMINATED BY SPONSOR\",\"context\":\"frequency\",\"stat_name\":\"pct\",\"stat\":2.3256},{\"group1\":\"Zanomaline Low Dose (54 mg)\",\"variable\":\"DCSREAS\",\"variable_level\":\"STUDY TERMINATED BY SPONSOR\",\"context\":\"frequency\",\"stat_name\":\"n\",\"stat\":0},{\"group1\":\"Zanomaline Low Dose (54 mg)\",\"variable\":\"DCSREAS\",\"variable_level\":\"STUDY TERMINATED BY SPONSOR\",\"context\":\"frequency\",\"stat_name\":\"pct\",\"stat\":null},{\"group1\":\"Zanomaline High Dose (81 mg)\",\"variable\":\"DCSREAS\",\"variable_level\":\"STUDY TERMINATED BY SPONSOR\",\"context\":\"frequency\",\"stat_name\":\"n\",\"stat\":0},{\"group1\":\"Zanomaline High Dose (81 mg)\",\"variable\":\"DCSREAS\",\"variable_level\":\"STUDY TERMINATED BY SPONSOR\",\"context\":\"frequency\",\"stat_name\":\"pct\",\"stat\":null},{\"group1\":\"Placebo\",\"variable\":\"DCSREAS\",\"variable_level\":\"WITHDRAWAL BY SUBJECT\",\"context\":\"frequency\",\"stat_name\":\"n\",\"stat\":9},{\"group1\":\"Placebo\",\"variable\":\"DCSREAS\",\"variable_level\":\"WITHDRAWAL BY SUBJECT\",\"context\":\"frequency\",\"stat_name\":\"pct\",\"stat\":10.4651},{\"group1\":\"Zanomaline Low Dose (54 mg)\",\"variable\":\"DCSREAS\",\"variable_level\":\"WITHDRAWAL BY SUBJECT\",\"context\":\"frequency\",\"stat_name\":\"n\",\"stat\":0},{\"group1\":\"Zanomaline Low Dose (54 mg)\",\"variable\":\"DCSREAS\",\"variable_level\":\"WITHDRAWAL BY SUBJECT\",\"context\":\"frequency\",\"stat_name\":\"pct\",\"stat\":null},{\"group1\":\"Zanomaline High Dose (81 mg)\",\"variable\":\"DCSREAS\",\"variable_level\":\"WITHDRAWAL BY SUBJECT\",\"context\":\"frequency\",\"stat_name\":\"n\",\"stat\":0},{\"group1\":\"Zanomaline High Dose (81 mg)\",\"variable\":\"DCSREAS\",\"variable_level\":\"WITHDRAWAL BY SUBJECT\",\"context\":\"frequency\",\"stat_name\":\"pct\",\"stat\":null}]\n",
    "generateR": null,
    "generateRPath": null,
    "isFigure": false,
    "figurePng": null
   }
  },
  {
   "id": "tlf:reg-subjects-by-site",
   "type": "TLF",
   "tier": 2,
   "label": "T-14-1.03",
   "sublabel": "Summary of Number of Subjects…",
   "title": "Summary of Number of Subjects by Site",
   "status": "generated",
   "unresolved": false,
   "absent": false,
   "isFigure": false,
   "meta": {
    "candidate_id": "reg-subjects-by-site",
    "final_id": "T-14-1.03",
    "dir_id": "T-14-1.03",
    "type": "Table",
    "category": "disposition",
    "cat_label": "Disposition / Populations",
    "title": "Summary of Number of Subjects by Site",
    "status": "generated",
    "status_reason": null,
    "priority": "supportive",
    "produced_by": "regulatory-scaffolding-planner",
    "notes": [
     "Emitted because multi_site=true. 6 sites present in DM (701,704,708,710,711,718); with 17 randomized subjects site pooling (SITEGR1) is required."
    ],
    "method": "Descriptive",
    "population": "All Subjects",
    "timepoint": null,
    "imputation": "none",
    "subgroup": null,
    "comparison": "by site and treatment group",
    "objectives": [],
    "endpoints": [],
    "regulatory_rule": "ICH E3 §10.1",
    "adam": [
     "ADSL"
    ],
    "sdtm": [
     "DM"
    ],
    "analysisSet": "All Enrolled Subjects",
    "analysisSetCond": "(no analysis-flag filter; all ADSL records)",
    "dataSubset": "(all records)",
    "purpose": "ICH E3 §10.1 enrollment accounting by (pooled) site.",
    "generatedMd": "# 14-1.03  Summary of Number of Subjects by Site\n\n**Protocol:** CDISCPILOT01  |  **Population:** All Enrolled Subjects  |  **Reason:** CONVENTION\n\n**Analysis set:** `(no analysis-flag filter; all ADSL records)`  —  Placebo N=86, Zanomaline Low N=0, Zanomaline High N=0, Total N=86\n\nBoth the raw site and the derived pooled site group are shown so the reviewer can verify the <3-randomized pooling rule directly.\n\n| Category | Placebo (N=86) | Zanomaline Low Dose (54 mg) (N=0) | Zanomaline High Dose (81 mg) (N=0) |\n|---|---|---|---|\n| **Investigational site** |  |  |  |\n| &nbsp;&nbsp;701 | 14 (16.3%) | 0 (-%) | 0 (-%) |\n| &nbsp;&nbsp;703 | 6 (7.0%) | 0 (-%) | 0 (-%) |\n| &nbsp;&nbsp;704 | 9 (10.5%) | 0 (-%) | 0 (-%) |\n| &nbsp;&nbsp;705 | 5 (5.8%) | 0 (-%) | 0 (-%) |\n| &nbsp;&nbsp;706 | 1 (1.2%) | 0 (-%) | 0 (-%) |\n| &nbsp;&nbsp;707 | 1 (1.2%) | 0 (-%) | 0 (-%) |\n| &nbsp;&nbsp;708 | 9 (10.5%) | 0 (-%) | 0 (-%) |\n| &nbsp;&nbsp;709 | 7 (8.1%) | 0 (-%) | 0 (-%) |\n| &nbsp;&nbsp;710 | 11 (12.8%) | 0 (-%) | 0 (-%) |\n| &nbsp;&nbsp;711 | 1 (1.2%) | 0 (-%) | 0 (-%) |\n| &nbsp;&nbsp;713 | 3 (3.5%) | 0 (-%) | 0 (-%) |\n| &nbsp;&nbsp;714 | 2 (2.3%) | 0 (-%) | 0 (-%) |\n| &nbsp;&nbsp;715 | 3 (3.5%) | 0 (-%) | 0 (-%) |\n| &nbsp;&nbsp;716 | 8 (9.3%) | 0 (-%) | 0 (-%) |\n| &nbsp;&nbsp;717 | 2 (2.3%) | 0 (-%) | 0 (-%) |\n| &nbsp;&nbsp;718 | 4 (4.7%) | 0 (-%) | 0 (-%) |\n| **Pooled site group (MANDATORY RULE 3)** |  |  |  |\n| &nbsp;&nbsp;900 | 86 (100.0%) | 0 (-%) | 0 (-%) |\n\n---\n\n### Notes\n\n- Shows BOTH raw SITEID and derived SITEGR1 so the reviewer can verify the mandatory <3-randomized pooling rule. 6 sites (701/704/708/710/711/718) over 17 randomized subjects — heavy pooling expected.\n- N-GATE CAVEAT: this study has 17 randomized subjects (Placebo 5 / Low 5 / High 7). All inferential statistics are illustrative and must not be interpreted.\n- All values computed from ADaM via the persisted ARD (`ard.csv`); no value is hand-entered.\n- Rounding: SAS convention (half away from zero), applied at display time only.\n\n> **N-GATE WARNING.** This study randomized 17 subjects (Placebo 5 / Zanomaline Low 5 / Zanomaline High 7). Every inferential statistic in this display is **illustrative only** and must not be interpreted as evidence of effect or of absence of effect.\n",
    "ardJson": "[{\"group1\":\"Placebo\",\"variable\":\"SITEID\",\"variable_level\":\"701\",\"context\":\"frequency\",\"stat_name\":\"n\",\"stat\":14},{\"group1\":\"Placebo\",\"variable\":\"SITEID\",\"variable_level\":\"701\",\"context\":\"frequency\",\"stat_name\":\"pct\",\"stat\":16.2791},{\"group1\":\"Zanomaline Low Dose (54 mg)\",\"variable\":\"SITEID\",\"variable_level\":\"701\",\"context\":\"frequency\",\"stat_name\":\"n\",\"stat\":0},{\"group1\":\"Zanomaline Low Dose (54 mg)\",\"variable\":\"SITEID\",\"variable_level\":\"701\",\"context\":\"frequency\",\"stat_name\":\"pct\",\"stat\":null},{\"group1\":\"Zanomaline High Dose (81 mg)\",\"variable\":\"SITEID\",\"variable_level\":\"701\",\"context\":\"frequency\",\"stat_name\":\"n\",\"stat\":0},{\"group1\":\"Zanomaline High Dose (81 mg)\",\"variable\":\"SITEID\",\"variable_level\":\"701\",\"context\":\"frequency\",\"stat_name\":\"pct\",\"stat\":null},{\"group1\":\"Placebo\",\"variable\":\"SITEID\",\"variable_level\":\"703\",\"context\":\"frequency\",\"stat_name\":\"n\",\"stat\":6},{\"group1\":\"Placebo\",\"variable\":\"SITEID\",\"variable_level\":\"703\",\"context\":\"frequency\",\"stat_name\":\"pct\",\"stat\":6.9767},{\"group1\":\"Zanomaline Low Dose (54 mg)\",\"variable\":\"SITEID\",\"variable_level\":\"703\",\"context\":\"frequency\",\"stat_name\":\"n\",\"stat\":0},{\"group1\":\"Zanomaline Low Dose (54 mg)\",\"variable\":\"SITEID\",\"variable_level\":\"703\",\"context\":\"frequency\",\"stat_name\":\"pct\",\"stat\":null},{\"group1\":\"Zanomaline High Dose (81 mg)\",\"variable\":\"SITEID\",\"variable_level\":\"703\",\"context\":\"frequency\",\"stat_name\":\"n\",\"stat\":0},{\"group1\":\"Zanomaline High Dose (81 mg)\",\"variable\":\"SITEID\",\"variable_level\":\"703\",\"context\":\"frequency\",\"stat_name\":\"pct\",\"stat\":null},{\"group1\":\"Placebo\",\"variable\":\"SITEID\",\"variable_level\":\"704\",\"context\":\"frequency\",\"stat_name\":\"n\",\"stat\":9},{\"group1\":\"Placebo\",\"variable\":\"SITEID\",\"variable_level\":\"704\",\"context\":\"frequency\",\"stat_name\":\"pct\",\"stat\":10.4651},{\"group1\":\"Zanomaline Low Dose (54 mg)\",\"variable\":\"SITEID\",\"variable_level\":\"704\",\"context\":\"frequency\",\"stat_name\":\"n\",\"stat\":0},{\"group1\":\"Zanomaline Low Dose (54 mg)\",\"variable\":\"SITEID\",\"variable_level\":\"704\",\"context\":\"frequency\",\"stat_name\":\"pct\",\"stat\":null},{\"group1\":\"Zanomaline High Dose (81 mg)\",\"variable\":\"SITEID\",\"variable_level\":\"704\",\"context\":\"frequency\",\"stat_name\":\"n\",\"stat\":0},{\"group1\":\"Zanomaline High Dose (81 mg)\",\"variable\":\"SITEID\",\"variable_level\":\"704\",\"context\":\"frequency\",\"stat_name\":\"pct\",\"stat\":null},{\"group1\":\"Placebo\",\"variable\":\"SITEID\",\"variable_level\":\"705\",\"context\":\"frequency\",\"stat_name\":\"n\",\"stat\":5},{\"group1\":\"Placebo\",\"variable\":\"SITEID\",\"variable_level\":\"705\",\"context\":\"frequency\",\"stat_name\":\"pct\",\"stat\":5.814},{\"group1\":\"Zanomaline Low Dose (54 mg)\",\"variable\":\"SITEID\",\"variable_level\":\"705\",\"context\":\"frequency\",\"stat_name\":\"n\",\"stat\":0},{\"group1\":\"Zanomaline Low Dose (54 mg)\",\"variable\":\"SITEID\",\"variable_level\":\"705\",\"context\":\"frequency\",\"stat_name\":\"pct\",\"stat\":null},{\"group1\":\"Zanomaline High Dose (81 mg)\",\"variable\":\"SITEID\",\"variable_level\":\"705\",\"context\":\"frequency\",\"stat_name\":\"n\",\"stat\":0},{\"group1\":\"Zanomaline High Dose (81 mg)\",\"variable\":\"SITEID\",\"variable_level\":\"705\",\"context\":\"frequency\",\"stat_name\":\"pct\",\"stat\":null},{\"group1\":\"Placebo\",\"variable\":\"SITEID\",\"variable_level\":\"706\",\"context\":\"frequency\",\"stat_name\":\"n\",\"stat\":1},{\"group1\":\"Placebo\",\"variable\":\"SITEID\",\"variable_level\":\"706\",\"context\":\"frequency\",\"stat_name\":\"pct\",\"stat\":1.1628},{\"group1\":\"Zanomaline Low Dose (54 mg)\",\"variable\":\"SITEID\",\"variable_level\":\"706\",\"context\":\"frequency\",\"stat_name\":\"n\",\"stat\":0},{\"group1\":\"Zanomaline Low Dose (54 mg)\",\"variable\":\"SITEID\",\"variable_level\":\"706\",\"context\":\"frequency\",\"stat_name\":\"pct\",\"stat\":null},{\"group1\":\"Zanomaline High Dose (81 mg)\",\"variable\":\"SITEID\",\"variable_level\":\"706\",\"context\":\"frequency\",\"stat_name\":\"n\",\"stat\":0},{\"group1\":\"Zanomaline High Dose (81 mg)\",\"variable\":\"SITEID\",\"variable_level\":\"706\",\"context\":\"frequency\",\"stat_name\":\"pct\",\"stat\":null},{\"group1\":\"Placebo\",\"variable\":\"SITEID\",\"variable_level\":\"707\",\"context\":\"frequency\",\"stat_name\":\"n\",\"stat\":1},{\"group1\":\"Placebo\",\"variable\":\"SITEID\",\"variable_level\":\"707\",\"context\":\"frequency\",\"stat_name\":\"pct\",\"stat\":1.1628},{\"group1\":\"Zanomaline Low Dose (54 mg)\",\"variable\":\"SITEID\",\"variable_level\":\"707\",\"context\":\"frequency\",\"stat_name\":\"n\",\"stat\":0},{\"group1\":\"Zanomaline Low Dose (54 mg)\",\"variable\":\"SITEID\",\"variable_level\":\"707\",\"context\":\"frequency\",\"stat_name\":\"pct\",\"stat\":null},{\"group1\":\"Zanomaline High Dose (81 mg)\",\"variable\":\"SITEID\",\"variable_level\":\"707\",\"context\":\"frequency\",\"stat_name\":\"n\",\"stat\":0},{\"group1\":\"Zanomaline High Dose (81 mg)\",\"variable\":\"SITEID\",\"variable_level\":\"707\",\"context\":\"frequency\",\"stat_name\":\"pct\",\"stat\":null},{\"group1\":\"Placebo\",\"variable\":\"SITEID\",\"variable_level\":\"708\",\"context\":\"frequency\",\"stat_name\":\"n\",\"stat\":9},{\"group1\":\"Placebo\",\"variable\":\"SITEID\",\"variable_level\":\"708\",\"context\":\"frequency\",\"stat_name\":\"pct\",\"stat\":10.4651},{\"group1\":\"Zanomaline Low Dose (54 mg)\",\"variable\":\"SITEID\",\"variable_level\":\"708\",\"context\":\"frequency\",\"stat_name\":\"n\",\"stat\":0},{\"group1\":\"Zanomaline Low Dose (54 mg)\",\"variable\":\"SITEID\",\"variable_level\":\"708\",\"context\":\"frequency\",\"stat_name\":\"pct\",\"stat\":null},{\"group1\":\"Zanomaline High Dose (81 mg)\",\"variable\":\"SITEID\",\"variable_level\":\"708\",\"context\":\"frequency\",\"stat_name\":\"n\",\"stat\":0},{\"group1\":\"Zanomaline High Dose (81 mg)\",\"variable\":\"SITEID\",\"variable_level\":\"708\",\"context\":\"frequency\",\"stat_name\":\"pct\",\"stat\":null},{\"group1\":\"Placebo\",\"variable\":\"SITEID\",\"variable_level\":\"709\",\"context\":\"frequency\",\"stat_name\":\"n\",\"stat\":7},{\"group1\":\"Placebo\",\"variable\":\"SITEID\",\"variable_level\":\"709\",\"context\":\"frequency\",\"stat_name\":\"pct\",\"stat\":8.1395},{\"group1\":\"Zanomaline Low Dose (54 mg)\",\"variable\":\"SITEID\",\"variable_level\":\"709\",\"context\":\"frequency\",\"stat_name\":\"n\",\"stat\":0},{\"group1\":\"Zanomaline Low Dose (54 mg)\",\"variable\":\"SITEID\",\"variable_level\":\"709\",\"context\":\"frequency\",\"stat_name\":\"pct\",\"stat\":null},{\"group1\":\"Zanomaline High Dose (81 mg)\",\"variable\":\"SITEID\",\"variable_level\":\"709\",\"context\":\"frequency\",\"stat_name\":\"n\",\"stat\":0},{\"group1\":\"Zanomaline High Dose (81 mg)\",\"variable\":\"SITEID\",\"variable_level\":\"709\",\"context\":\"frequency\",\"stat_name\":\"pct\",\"stat\":null},{\"group1\":\"Placebo\",\"variable\":\"SITEID\",\"variable_level\":\"710\",\"context\":\"frequency\",\"stat_name\":\"n\",\"stat\":11},{\"group1\":\"Placebo\",\"variable\":\"SITEID\",\"variable_level\":\"710\",\"context\":\"frequency\",\"stat_name\":\"pct\",\"stat\":12.7907},{\"group1\":\"Zanomaline Low Dose (54 mg)\",\"variable\":\"SITEID\",\"variable_level\":\"710\",\"context\":\"frequency\",\"stat_name\":\"n\",\"stat\":0},{\"group1\":\"Zanomaline Low Dose (54 mg)\",\"variable\":\"SITEID\",\"variable_level\":\"710\",\"context\":\"frequency\",\"stat_name\":\"pct\",\"stat\":null},{\"group1\":\"Zanomaline High Dose (81 mg)\",\"variable\":\"SITEID\",\"variable_level\":\"710\",\"context\":\"frequency\",\"stat_name\":\"n\",\"stat\":0},{\"group1\":\"Zanomaline High Dose (81 mg)\",\"variable\":\"SITEID\",\"variable_level\":\"710\",\"context\":\"frequency\",\"stat_name\":\"pct\",\"stat\":null},{\"group1\":\"Placebo\",\"variable\":\"SITEID\",\"variable_level\":\"711\",\"context\":\"frequency\",\"stat_name\":\"n\",\"stat\":1},{\"group1\":\"Placebo\",\"variable\":\"SITEID\",\"variable_level\":\"711\",\"context\":\"frequency\",\"stat_name\":\"pct\",\"stat\":1.1628},{\"group1\":\"Zanomaline Low Dose (54 mg)\",\"variable\":\"SITEID\",\"variable_level\":\"711\",\"context\":\"frequency\",\"stat_name\":\"n\",\"stat\":0},{\"group1\":\"Zanomaline Low Dose (54 mg)\",\"variable\":\"SITEID\",\"variable_level\":\"711\",\"context\":\"frequency\",\"stat_name\":\"pct\",\"stat\":null},{\"group1\":\"Zanomaline High Dose (81 mg)\",\"variable\":\"SITEID\",\"variable_level\":\"711\",\"context\":\"frequency\",\"stat_name\":\"n\",\"stat\":0},{\"group1\":\"Zanomaline High Dose (81 mg)\",\"variable\":\"SITEID\",\"variable_level\":\"711\",\"context\":\"frequency\",\"stat_name\":\"pct\",\"stat\":null},{\"group1\":\"Placebo\",\"variable\":\"SITEID\",\"variable_level\":\"713\",\"context\":\"frequency\",\"stat_name\":\"n\",\"stat\":3},{\"group1\":\"Placebo\",\"variable\":\"SITEID\",\"variable_level\":\"713\",\"context\":\"frequency\",\"stat_name\":\"pct\",\"stat\":3.4884},{\"group1\":\"Zanomaline Low Dose (54 mg)\",\"variable\":\"SITEID\",\"variable_level\":\"713\",\"context\":\"frequency\",\"stat_name\":\"n\",\"stat\":0},{\"group1\":\"Zanomaline Low Dose (54 mg)\",\"variable\":\"SITEID\",\"variable_level\":\"713\",\"context\":\"frequency\",\"stat_name\":\"pct\",\"stat\":null},{\"group1\":\"Zanomaline High Dose (81 mg)\",\"variable\":\"SITEID\",\"variable_level\":\"713\",\"context\":\"frequency\",\"stat_name\":\"n\",\"stat\":0},{\"group1\":\"Zanomaline High Dose (81 mg)\",\"variable\":\"SITEID\",\"variable_level\":\"713\",\"context\":\"frequency\",\"stat_name\":\"pct\",\"stat\":null},{\"group1\":\"Placebo\",\"variable\":\"SITEID\",\"variable_level\":\"714\",\"context\":\"frequency\",\"stat_name\":\"n\",\"stat\":2},{\"group1\":\"Placebo\",\"variable\":\"SITEID\",\"variable_level\":\"714\",\"context\":\"frequency\",\"stat_name\":\"pct\",\"stat\":2.3256},{\"group1\":\"Zanomaline Low Dose (54 mg)\",\"variable\":\"SITEID\",\"variable_level\":\"714\",\"context\":\"frequency\",\"stat_name\":\"n\",\"stat\":0},{\"group1\":\"Zanomaline Low Dose (54 mg)\",\"variable\":\"SITEID\",\"variable_level\":\"714\",\"context\":\"frequency\",\"stat_name\":\"pct\",\"stat\":null},{\"group1\":\"Zanomaline High Dose (81 mg)\",\"variable\":\"SITEID\",\"variable_level\":\"714\",\"context\":\"frequency\",\"stat_name\":\"n\",\"stat\":0},{\"group1\":\"Zanomaline High Dose (81 mg)\",\"variable\":\"SITEID\",\"variable_level\":\"714\",\"context\":\"frequency\",\"stat_name\":\"pct\",\"stat\":null},{\"group1\":\"Placebo\",\"variable\":\"SITEID\",\"variable_level\":\"715\",\"context\":\"frequency\",\"stat_name\":\"n\",\"stat\":3},{\"group1\":\"Placebo\",\"variable\":\"SITEID\",\"variable_level\":\"715\",\"context\":\"frequency\",\"stat_name\":\"pct\",\"stat\":3.4884},{\"group1\":\"Zanomaline Low Dose (54 mg)\",\"variable\":\"SITEID\",\"variable_level\":\"715\",\"context\":\"frequency\",\"stat_name\":\"n\",\"stat\":0},{\"group1\":\"Zanomaline Low Dose (54 mg)\",\"variable\":\"SITEID\",\"variable_level\":\"715\",\"context\":\"frequency\",\"stat_name\":\"pct\",\"stat\":null},{\"group1\":\"Zanomaline High Dose (81 mg)\",\"variable\":\"SITEID\",\"variable_level\":\"715\",\"context\":\"frequency\",\"stat_name\":\"n\",\"stat\":0},{\"group1\":\"Zanomaline High Dose (81 mg)\",\"variable\":\"SITEID\",\"variable_level\":\"715\",\"context\":\"frequency\",\"stat_name\":\"pct\",\"stat\":null},{\"group1\":\"Placebo\",\"variable\":\"SITEID\",\"variable_level\":\"716\",\"context\":\"frequency\",\"stat_name\":\"n\",\"stat\":8},{\"group1\":\"Placebo\",\"variable\":\"SITEID\",\"variable_level\":\"716\",\"context\":\"frequency\",\"stat_name\":\"pct\",\"stat\":9.3023},{\"group1\":\"Zanomaline Low Dose (54 mg)\",\"variable\":\"SITEID\",\"variable_level\":\"716\",\"context\":\"frequency\",\"stat_name\":\"n\",\"stat\":0},{\"group1\":\"Zanomaline Low Dose (54 mg)\",\"variable\":\"SITEID\",\"variable_level\":\"716\",\"context\":\"frequency\",\"stat_name\":\"pct\",\"stat\":null},{\"group1\":\"Zanomaline High Dose (81 mg)\",\"variable\":\"SITEID\",\"variable_level\":\"716\",\"context\":\"frequency\",\"stat_name\":\"n\",\"stat\":0},{\"group1\":\"Zanomaline High Dose (81 mg)\",\"variable\":\"SITEID\",\"variable_level\":\"716\",\"context\":\"frequency\",\"stat_name\":\"pct\",\"stat\":null},{\"group1\":\"Placebo\",\"variable\":\"SITEID\",\"variable_level\":\"717\",\"context\":\"frequency\",\"stat_name\":\"n\",\"stat\":2},{\"group1\":\"Placebo\",\"variable\":\"SITEID\",\"variable_level\":\"717\",\"context\":\"frequency\",\"stat_name\":\"pct\",\"stat\":2.3256},{\"group1\":\"Zanomaline Low Dose (54 mg)\",\"variable\":\"SITEID\",\"variable_level\":\"717\",\"context\":\"frequency\",\"stat_name\":\"n\",\"stat\":0},{\"group1\":\"Zanomaline Low Dose (54 mg)\",\"variable\":\"SITEID\",\"variable_level\":\"717\",\"context\":\"frequency\",\"stat_name\":\"pct\",\"stat\":null},{\"group1\":\"Zanomaline High Dose (81 mg)\",\"variable\":\"SITEID\",\"variable_level\":\"717\",\"context\":\"frequency\",\"stat_name\":\"n\",\"stat\":0},{\"group1\":\"Zanomaline High Dose (81 mg)\",\"variable\":\"SITEID\",\"variable_level\":\"717\",\"context\":\"frequency\",\"stat_name\":\"pct\",\"stat\":null},{\"group1\":\"Placebo\",\"variable\":\"SITEID\",\"variable_level\":\"718\",\"context\":\"frequency\",\"stat_name\":\"n\",\"stat\":4},{\"group1\":\"Placebo\",\"variable\":\"SITEID\",\"variable_level\":\"718\",\"context\":\"frequency\",\"stat_name\":\"pct\",\"stat\":4.6512},{\"group1\":\"Zanomaline Low Dose (54 mg)\",\"variable\":\"SITEID\",\"variable_level\":\"718\",\"context\":\"frequency\",\"stat_name\":\"n\",\"stat\":0},{\"group1\":\"Zanomaline Low Dose (54 mg)\",\"variable\":\"SITEID\",\"variable_level\":\"718\",\"context\":\"frequency\",\"stat_name\":\"pct\",\"stat\":null},{\"group1\":\"Zanomaline High Dose (81 mg)\",\"variable\":\"SITEID\",\"variable_level\":\"718\",\"context\":\"frequency\",\"stat_name\":\"n\",\"stat\":0},{\"group1\":\"Zanomaline High Dose (81 mg)\",\"variable\":\"SITEID\",\"variable_level\":\"718\",\"context\":\"frequency\",\"stat_name\":\"pct\",\"stat\":null},{\"group1\":\"Placebo\",\"variable\":\"SITEGR1\",\"variable_level\":\"900\",\"context\":\"frequency\",\"stat_name\":\"n\",\"stat\":86},{\"group1\":\"Placebo\",\"variable\":\"SITEGR1\",\"variable_level\":\"900\",\"context\":\"frequency\",\"stat_name\":\"pct\",\"stat\":100},{\"group1\":\"Zanomaline Low Dose (54 mg)\",\"variable\":\"SITEGR1\",\"variable_level\":\"900\",\"context\":\"frequency\",\"stat_name\":\"n\",\"stat\":0},{\"group1\":\"Zanomaline Low Dose (54 mg)\",\"variable\":\"SITEGR1\",\"variable_level\":\"900\",\"context\":\"frequency\",\"stat_name\":\"pct\",\"stat\":null},{\"group1\":\"Zanomaline High Dose (81 mg)\",\"variable\":\"SITEGR1\",\"variable_level\":\"900\",\"context\":\"frequency\",\"stat_name\":\"n\",\"stat\":0},{\"group1\":\"Zanomaline High Dose (81 mg)\",\"variable\":\"SITEGR1\",\"variable_level\":\"900\",\"context\":\"frequency\",\"stat_name\":\"pct\",\"stat\":null}]\n",
    "generateR": null,
    "generateRPath": null,
    "isFigure": false,
    "figurePng": null
   }
  },
  {
   "id": "tlf:reg-demographics-baseline",
   "type": "TLF",
   "tier": 2,
   "label": "T-14-2.01",
   "sublabel": "Summary of Demographic and Ba…",
   "title": "Summary of Demographic and Baseline Characteristics",
   "status": "generated",
   "unresolved": false,
   "absent": false,
   "isFigure": false,
   "meta": {
    "candidate_id": "reg-demographics-baseline",
    "final_id": "T-14-2.01",
    "dir_id": "T-14-2.01",
    "type": "Table",
    "category": "demographics",
    "cat_label": "Demographics & Baseline",
    "title": "Summary of Demographic and Baseline Characteristics",
    "status": "generated",
    "status_reason": null,
    "priority": "supportive",
    "produced_by": "regulatory-scaffolding-planner",
    "notes": [
     "Age/sex/race/ethnicity/baseline weight & height; baseline comparability of arms."
    ],
    "method": "Descriptive",
    "population": "Intent-to-Treat",
    "timepoint": null,
    "imputation": "none",
    "subgroup": null,
    "comparison": "by treatment group",
    "objectives": [],
    "endpoints": [],
    "regulatory_rule": "ICH E3 §11.2",
    "adam": [
     "ADSL"
    ],
    "sdtm": [
     "DM"
    ],
    "analysisSet": "Intent-to-Treat Population",
    "analysisSetCond": "ITTFL = 'Y'",
    "dataSubset": "ITTFL = 'Y'",
    "purpose": "ICH E3 §11.2 demographics and baseline comparability of the treatment arms.",
    "generatedMd": "# 14-2.01  Summary of Demographic and Baseline Characteristics\n\n**Protocol:** CDISCPILOT01  |  **Population:** Intent-to-Treat Population  |  **Reason:** CONVENTION\n\n**Analysis set:** `ITTFL = 'Y'`  —  Placebo N=86, Zanomaline Low N=0, Zanomaline High N=0, Total N=86\n\n| Characteristic | Placebo (N=86) | Zanomaline Low Dose (54 mg) (N=0) | Zanomaline High Dose (81 mg) (N=0) |\n|---|---|---|---|\n| **Age (years)** |  |  |  |\n| n | 86 | - | - |\n| Mean (SD) | 75.2 (8.59) | - (-) | - (-) |\n| Median | 76.0 | - | - |\n| Range | (52.0, 89.0) | (-, -) | (-, -) |\n| **Baseline weight (kg)** |  |  |  |\n| n | 86 | - | - |\n| Mean (SD) | 62.8 (12.77) | - (-) | - (-) |\n| Median | 60.6 | - | - |\n| Range | (34.0, 86.2) | (-, -) | (-, -) |\n| **Baseline height (cm)** |  |  |  |\n| n | 86 | - | - |\n| Mean (SD) | 162.6 (11.52) | - (-) | - (-) |\n| Median | 162.6 | - | - |\n| Range | (137.2, 185.4) | (-, -) | (-, -) |\n| **Baseline BMI (kg/m2)** |  |  |  |\n| n | 86 | - | - |\n| Mean (SD) | 23.6 (3.67) | - (-) | - (-) |\n| Median | 23.4 | - | - |\n| Range | (15.1, 33.3) | (-, -) | (-, -) |\n| **Sex** |  |  |  |\n| &nbsp;&nbsp;F | 53 (61.6%) | 0 (-%) | 0 (-%) |\n| &nbsp;&nbsp;M | 33 (38.4%) | 0 (-%) | 0 (-%) |\n| **Age group** |  |  |  |\n| &nbsp;&nbsp;<65 | 14 (16.3%) | 0 (-%) | 0 (-%) |\n| &nbsp;&nbsp;>80 | 30 (34.9%) | 0 (-%) | 0 (-%) |\n| &nbsp;&nbsp;65-80 | 42 (48.8%) | 0 (-%) | 0 (-%) |\n| **Race** |  |  |  |\n| &nbsp;&nbsp;BLACK OR AFRICAN AMERICAN | 8 (9.3%) | 0 (-%) | 0 (-%) |\n| &nbsp;&nbsp;WHITE | 78 (90.7%) | 0 (-%) | 0 (-%) |\n| **Ethnicity** |  |  |  |\n| &nbsp;&nbsp;HISPANIC OR LATINO | 3 (3.5%) | 0 (-%) | 0 (-%) |\n| &nbsp;&nbsp;NOT HISPANIC OR LATINO | 83 (96.5%) | 0 (-%) | 0 (-%) |\n| **Country** |  |  |  |\n| &nbsp;&nbsp;USA | 86 (100.0%) | 0 (-%) | 0 (-%) |\n\n---\n\n### Notes\n\n- No between-group inferential test: at N=17 a baseline comparability p-value is meaningless and baseline testing in a randomized trial is discouraged (ICH E9).\n- DM RACE has 3 levels in the data (WHITE / BLACK OR AFRICAN AMERICAN / MULTIPLE); ETHNIC is present.\n- AGEGR1 (<65 / 65-80 / >80) must be derived in ADSL; observed AGE range is 61-89.\n- N-GATE CAVEAT: this study has 17 randomized subjects (Placebo 5 / Low 5 / High 7). All inferential statistics are illustrative and must not be interpreted.\n- No between-group test is presented: baseline testing in a randomized trial is discouraged (ICH E9), and at N=17 it would be meaningless.\n- All values computed from ADaM via the persisted ARD (`ard.csv`); no value is hand-entered.\n- Rounding: SAS convention (half away from zero), applied at display time only.\n\n> **N-GATE WARNING.** This study randomized 17 subjects (Placebo 5 / Zanomaline Low 5 / Zanomaline High 7). Every inferential statistic in this display is **illustrative only** and must not be interpreted as evidence of effect or of absence of effect.\n",
    "ardJson": "[{\"group1\":\"Placebo\",\"variable\":\"AGE\",\"variable_level\":null,\"context\":\"descriptive\",\"stat_name\":\"N\",\"stat\":86},{\"group1\":\"Placebo\",\"variable\":\"AGE\",\"variable_level\":null,\"context\":\"descriptive\",\"stat_name\":\"mean\",\"stat\":75.2093},{\"group1\":\"Placebo\",\"variable\":\"AGE\",\"variable_level\":null,\"context\":\"descriptive\",\"stat_name\":\"sd\",\"stat\":8.5902},{\"group1\":\"Placebo\",\"variable\":\"AGE\",\"variable_level\":null,\"context\":\"descriptive\",\"stat_name\":\"median\",\"stat\":76},{\"group1\":\"Placebo\",\"variable\":\"AGE\",\"variable_level\":null,\"context\":\"descriptive\",\"stat_name\":\"min\",\"stat\":52},{\"group1\":\"Placebo\",\"variable\":\"AGE\",\"variable_level\":null,\"context\":\"descriptive\",\"stat_name\":\"max\",\"stat\":89},{\"group1\":\"Placebo\",\"variable\":\"WEIGHTBL\",\"variable_level\":null,\"context\":\"descriptive\",\"stat_name\":\"N\",\"stat\":86},{\"group1\":\"Placebo\",\"variable\":\"WEIGHTBL\",\"variable_level\":null,\"context\":\"descriptive\",\"stat_name\":\"mean\",\"stat\":62.7574},{\"group1\":\"Placebo\",\"variable\":\"WEIGHTBL\",\"variable_level\":null,\"context\":\"descriptive\",\"stat_name\":\"sd\",\"stat\":12.7704},{\"group1\":\"Placebo\",\"variable\":\"WEIGHTBL\",\"variable_level\":null,\"context\":\"descriptive\",\"stat_name\":\"median\",\"stat\":60.56},{\"group1\":\"Placebo\",\"variable\":\"WEIGHTBL\",\"variable_level\":null,\"context\":\"descriptive\",\"stat_name\":\"min\",\"stat\":34.02},{\"group1\":\"Placebo\",\"variable\":\"WEIGHTBL\",\"variable_level\":null,\"context\":\"descriptive\",\"stat_name\":\"max\",\"stat\":86.18},{\"group1\":\"Placebo\",\"variable\":\"HEIGHTBL\",\"variable_level\":null,\"context\":\"descriptive\",\"stat_name\":\"N\",\"stat\":86},{\"group1\":\"Placebo\",\"variable\":\"HEIGHTBL\",\"variable_level\":null,\"context\":\"descriptive\",\"stat_name\":\"mean\",\"stat\":162.5714},{\"group1\":\"Placebo\",\"variable\":\"HEIGHTBL\",\"variable_level\":null,\"context\":\"descriptive\",\"stat_name\":\"sd\",\"stat\":11.5231},{\"group1\":\"Placebo\",\"variable\":\"HEIGHTBL\",\"variable_level\":null,\"context\":\"descriptive\",\"stat_name\":\"median\",\"stat\":162.56},{\"group1\":\"Placebo\",\"variable\":\"HEIGHTBL\",\"variable_level\":null,\"context\":\"descriptive\",\"stat_name\":\"min\",\"stat\":137.16},{\"group1\":\"Placebo\",\"variable\":\"HEIGHTBL\",\"variable_level\":null,\"context\":\"descriptive\",\"stat_name\":\"max\",\"stat\":185.42},{\"group1\":\"Placebo\",\"variable\":\"BMIBL\",\"variable_level\":null,\"context\":\"descriptive\",\"stat_name\":\"N\",\"stat\":86},{\"group1\":\"Placebo\",\"variable\":\"BMIBL\",\"variable_level\":null,\"context\":\"descriptive\",\"stat_name\":\"mean\",\"stat\":23.6384},{\"group1\":\"Placebo\",\"variable\":\"BMIBL\",\"variable_level\":null,\"context\":\"descriptive\",\"stat_name\":\"sd\",\"stat\":3.6735},{\"group1\":\"Placebo\",\"variable\":\"BMIBL\",\"variable_level\":null,\"context\":\"descriptive\",\"stat_name\":\"median\",\"stat\":23.4},{\"group1\":\"Placebo\",\"variable\":\"BMIBL\",\"variable_level\":null,\"context\":\"descriptive\",\"stat_name\":\"min\",\"stat\":15.1},{\"group1\":\"Placebo\",\"variable\":\"BMIBL\",\"variable_level\":null,\"context\":\"descriptive\",\"stat_name\":\"max\",\"stat\":33.3},{\"group1\":\"Placebo\",\"variable\":\"SEX\",\"variable_level\":\"F\",\"context\":\"frequency\",\"stat_name\":\"n\",\"stat\":53},{\"group1\":\"Placebo\",\"variable\":\"SEX\",\"variable_level\":\"F\",\"context\":\"frequency\",\"stat_name\":\"pct\",\"stat\":61.6279},{\"group1\":\"Zanomaline Low Dose (54 mg)\",\"variable\":\"SEX\",\"variable_level\":\"F\",\"context\":\"frequency\",\"stat_name\":\"n\",\"stat\":0},{\"group1\":\"Zanomaline Low Dose (54 mg)\",\"variable\":\"SEX\",\"variable_level\":\"F\",\"context\":\"frequency\",\"stat_name\":\"pct\",\"stat\":null},{\"group1\":\"Zanomaline High Dose (81 mg)\",\"variable\":\"SEX\",\"variable_level\":\"F\",\"context\":\"frequency\",\"stat_name\":\"n\",\"stat\":0},{\"group1\":\"Zanomaline High Dose (81 mg)\",\"variable\":\"SEX\",\"variable_level\":\"F\",\"context\":\"frequency\",\"stat_name\":\"pct\",\"stat\":null},{\"group1\":\"Placebo\",\"variable\":\"SEX\",\"variable_level\":\"M\",\"context\":\"frequency\",\"stat_name\":\"n\",\"stat\":33},{\"group1\":\"Placebo\",\"variable\":\"SEX\",\"variable_level\":\"M\",\"context\":\"frequency\",\"stat_name\":\"pct\",\"stat\":38.3721},{\"group1\":\"Zanomaline Low Dose (54 mg)\",\"variable\":\"SEX\",\"variable_level\":\"M\",\"context\":\"frequency\",\"stat_name\":\"n\",\"stat\":0},{\"group1\":\"Zanomaline Low Dose (54 mg)\",\"variable\":\"SEX\",\"variable_level\":\"M\",\"context\":\"frequency\",\"stat_name\":\"pct\",\"stat\":null},{\"group1\":\"Zanomaline High Dose (81 mg)\",\"variable\":\"SEX\",\"variable_level\":\"M\",\"context\":\"frequency\",\"stat_name\":\"n\",\"stat\":0},{\"group1\":\"Zanomaline High Dose (81 mg)\",\"variable\":\"SEX\",\"variable_level\":\"M\",\"context\":\"frequency\",\"stat_name\":\"pct\",\"stat\":null},{\"group1\":\"Placebo\",\"variable\":\"AGEGR1\",\"variable_level\":\"<65\",\"context\":\"frequency\",\"stat_name\":\"n\",\"stat\":14},{\"group1\":\"Placebo\",\"variable\":\"AGEGR1\",\"variable_level\":\"<65\",\"context\":\"frequency\",\"stat_name\":\"pct\",\"stat\":16.2791},{\"group1\":\"Zanomaline Low Dose (54 mg)\",\"variable\":\"AGEGR1\",\"variable_level\":\"<65\",\"context\":\"frequency\",\"stat_name\":\"n\",\"stat\":0},{\"group1\":\"Zanomaline Low Dose (54 mg)\",\"variable\":\"AGEGR1\",\"variable_level\":\"<65\",\"context\":\"frequency\",\"stat_name\":\"pct\",\"stat\":null},{\"group1\":\"Zanomaline High Dose (81 mg)\",\"variable\":\"AGEGR1\",\"variable_level\":\"<65\",\"context\":\"frequency\",\"stat_name\":\"n\",\"stat\":0},{\"group1\":\"Zanomaline High Dose (81 mg)\",\"variable\":\"AGEGR1\",\"variable_level\":\"<65\",\"context\":\"frequency\",\"stat_name\":\"pct\",\"stat\":null},{\"group1\":\"Placebo\",\"variable\":\"AGEGR1\",\"variable_level\":\">80\",\"context\":\"frequency\",\"stat_name\":\"n\",\"stat\":30},{\"group1\":\"Placebo\",\"variable\":\"AGEGR1\",\"variable_level\":\">80\",\"context\":\"frequency\",\"stat_name\":\"pct\",\"stat\":34.8837},{\"group1\":\"Zanomaline Low Dose (54 mg)\",\"variable\":\"AGEGR1\",\"variable_level\":\">80\",\"context\":\"frequency\",\"stat_name\":\"n\",\"stat\":0},{\"group1\":\"Zanomaline Low Dose (54 mg)\",\"variable\":\"AGEGR1\",\"variable_level\":\">80\",\"context\":\"frequency\",\"stat_name\":\"pct\",\"stat\":null},{\"group1\":\"Zanomaline High Dose (81 mg)\",\"variable\":\"AGEGR1\",\"variable_level\":\">80\",\"context\":\"frequency\",\"stat_name\":\"n\",\"stat\":0},{\"group1\":\"Zanomaline High Dose (81 mg)\",\"variable\":\"AGEGR1\",\"variable_level\":\">80\",\"context\":\"frequency\",\"stat_name\":\"pct\",\"stat\":null},{\"group1\":\"Placebo\",\"variable\":\"AGEGR1\",\"variable_level\":\"65-80\",\"context\":\"frequency\",\"stat_name\":\"n\",\"stat\":42},{\"group1\":\"Placebo\",\"variable\":\"AGEGR1\",\"variable_level\":\"65-80\",\"context\":\"frequency\",\"stat_name\":\"pct\",\"stat\":48.8372},{\"group1\":\"Zanomaline Low Dose (54 mg)\",\"variable\":\"AGEGR1\",\"variable_level\":\"65-80\",\"context\":\"frequency\",\"stat_name\":\"n\",\"stat\":0},{\"group1\":\"Zanomaline Low Dose (54 mg)\",\"variable\":\"AGEGR1\",\"variable_level\":\"65-80\",\"context\":\"frequency\",\"stat_name\":\"pct\",\"stat\":null},{\"group1\":\"Zanomaline High Dose (81 mg)\",\"variable\":\"AGEGR1\",\"variable_level\":\"65-80\",\"context\":\"frequency\",\"stat_name\":\"n\",\"stat\":0},{\"group1\":\"Zanomaline High Dose (81 mg)\",\"variable\":\"AGEGR1\",\"variable_level\":\"65-80\",\"context\":\"frequency\",\"stat_name\":\"pct\",\"stat\":null},{\"group1\":\"Placebo\",\"variable\":\"RACE\",\"variable_level\":\"BLACK OR AFRICAN AMERICAN\",\"context\":\"frequency\",\"stat_name\":\"n\",\"stat\":8},{\"group1\":\"Placebo\",\"variable\":\"RACE\",\"variable_level\":\"BLACK OR AFRICAN AMERICAN\",\"context\":\"frequency\",\"stat_name\":\"pct\",\"stat\":9.3023},{\"group1\":\"Zanomaline Low Dose (54 mg)\",\"variable\":\"RACE\",\"variable_level\":\"BLACK OR AFRICAN AMERICAN\",\"context\":\"frequency\",\"stat_name\":\"n\",\"stat\":0},{\"group1\":\"Zanomaline Low Dose (54 mg)\",\"variable\":\"RACE\",\"variable_level\":\"BLACK OR AFRICAN AMERICAN\",\"context\":\"frequency\",\"stat_name\":\"pct\",\"stat\":null},{\"group1\":\"Zanomaline High Dose (81 mg)\",\"variable\":\"RACE\",\"variable_level\":\"BLACK OR AFRICAN AMERICAN\",\"context\":\"frequency\",\"stat_name\":\"n\",\"stat\":0},{\"group1\":\"Zanomaline High Dose (81 mg)\",\"variable\":\"RACE\",\"variable_level\":\"BLACK OR AFRICAN AMERICAN\",\"context\":\"frequency\",\"stat_name\":\"pct\",\"stat\":null},{\"group1\":\"Placebo\",\"variable\":\"RACE\",\"variable_level\":\"WHITE\",\"context\":\"frequency\",\"stat_name\":\"n\",\"stat\":78},{\"group1\":\"Placebo\",\"variable\":\"RACE\",\"variable_level\":\"WHITE\",\"context\":\"frequency\",\"stat_name\":\"pct\",\"stat\":90.6977},{\"group1\":\"Zanomaline Low Dose (54 mg)\",\"variable\":\"RACE\",\"variable_level\":\"WHITE\",\"context\":\"frequency\",\"stat_name\":\"n\",\"stat\":0},{\"group1\":\"Zanomaline Low Dose (54 mg)\",\"variable\":\"RACE\",\"variable_level\":\"WHITE\",\"context\":\"frequency\",\"stat_name\":\"pct\",\"stat\":null},{\"group1\":\"Zanomaline High Dose (81 mg)\",\"variable\":\"RACE\",\"variable_level\":\"WHITE\",\"context\":\"frequency\",\"stat_name\":\"n\",\"stat\":0},{\"group1\":\"Zanomaline High Dose (81 mg)\",\"variable\":\"RACE\",\"variable_level\":\"WHITE\",\"context\":\"frequency\",\"stat_name\":\"pct\",\"stat\":null},{\"group1\":\"Placebo\",\"variable\":\"ETHNIC\",\"variable_level\":\"HISPANIC OR LATINO\",\"context\":\"frequency\",\"stat_name\":\"n\",\"stat\":3},{\"group1\":\"Placebo\",\"variable\":\"ETHNIC\",\"variable_level\":\"HISPANIC OR LATINO\",\"context\":\"frequency\",\"stat_name\":\"pct\",\"stat\":3.4884},{\"group1\":\"Zanomaline Low Dose (54 mg)\",\"variable\":\"ETHNIC\",\"variable_level\":\"HISPANIC OR LATINO\",\"context\":\"frequency\",\"stat_name\":\"n\",\"stat\":0},{\"group1\":\"Zanomaline Low Dose (54 mg)\",\"variable\":\"ETHNIC\",\"variable_level\":\"HISPANIC OR LATINO\",\"context\":\"frequency\",\"stat_name\":\"pct\",\"stat\":null},{\"group1\":\"Zanomaline High Dose (81 mg)\",\"variable\":\"ETHNIC\",\"variable_level\":\"HISPANIC OR LATINO\",\"context\":\"frequency\",\"stat_name\":\"n\",\"stat\":0},{\"group1\":\"Zanomaline High Dose (81 mg)\",\"variable\":\"ETHNIC\",\"variable_level\":\"HISPANIC OR LATINO\",\"context\":\"frequency\",\"stat_name\":\"pct\",\"stat\":null},{\"group1\":\"Placebo\",\"variable\":\"ETHNIC\",\"variable_level\":\"NOT HISPANIC OR LATINO\",\"context\":\"frequency\",\"stat_name\":\"n\",\"stat\":83},{\"group1\":\"Placebo\",\"variable\":\"ETHNIC\",\"variable_level\":\"NOT HISPANIC OR LATINO\",\"context\":\"frequency\",\"stat_name\":\"pct\",\"stat\":96.5116},{\"group1\":\"Zanomaline Low Dose (54 mg)\",\"variable\":\"ETHNIC\",\"variable_level\":\"NOT HISPANIC OR LATINO\",\"context\":\"frequency\",\"stat_name\":\"n\",\"stat\":0},{\"group1\":\"Zanomaline Low Dose (54 mg)\",\"variable\":\"ETHNIC\",\"variable_level\":\"NOT HISPANIC OR LATINO\",\"context\":\"frequency\",\"stat_name\":\"pct\",\"stat\":null},{\"group1\":\"Zanomaline High Dose (81 mg)\",\"variable\":\"ETHNIC\",\"variable_level\":\"NOT HISPANIC OR LATINO\",\"context\":\"frequency\",\"stat_name\":\"n\",\"stat\":0},{\"group1\":\"Zanomaline High Dose (81 mg)\",\"variable\":\"ETHNIC\",\"variable_level\":\"NOT HISPANIC OR LATINO\",\"context\":\"frequency\",\"stat_name\":\"pct\",\"stat\":null},{\"group1\":\"Placebo\",\"variable\":\"COUNTRY\",\"variable_level\":\"USA\",\"context\":\"frequency\",\"stat_name\":\"n\",\"stat\":86},{\"group1\":\"Placebo\",\"variable\":\"COUNTRY\",\"variable_level\":\"USA\",\"context\":\"frequency\",\"stat_name\":\"pct\",\"stat\":100},{\"group1\":\"Zanomaline Low Dose (54 mg)\",\"variable\":\"COUNTRY\",\"variable_level\":\"USA\",\"context\":\"frequency\",\"stat_name\":\"n\",\"stat\":0},{\"group1\":\"Zanomaline Low Dose (54 mg)\",\"variable\":\"COUNTRY\",\"variable_level\":\"USA\",\"context\":\"frequency\",\"stat_name\":\"pct\",\"stat\":null},{\"group1\":\"Zanomaline High Dose (81 mg)\",\"variable\":\"COUNTRY\",\"variable_level\":\"USA\",\"context\":\"frequency\",\"stat_name\":\"n\",\"stat\":0},{\"group1\":\"Zanomaline High Dose (81 mg)\",\"variable\":\"COUNTRY\",\"variable_level\":\"USA\",\"context\":\"frequency\",\"stat_name\":\"pct\",\"stat\":null}]\n",
    "generateR": null,
    "generateRPath": null,
    "isFigure": false,
    "figurePng": null
   }
  },
  {
   "id": "tlf:reg-exposure-planned",
   "type": "TLF",
   "tier": 2,
   "label": "T-14-4.01",
   "sublabel": "Summary of Planned Exposure t…",
   "title": "Summary of Planned Exposure to Study Drug",
   "status": "generated",
   "unresolved": false,
   "absent": false,
   "isFigure": false,
   "meta": {
    "candidate_id": "reg-exposure-planned",
    "final_id": "T-14-4.01",
    "dir_id": "T-14-4.01",
    "type": "Table",
    "category": "exposure",
    "cat_label": "Drug Exposure",
    "title": "Summary of Planned Exposure to Study Drug",
    "status": "generated",
    "status_reason": null,
    "priority": "supportive",
    "produced_by": "regulatory-scaffolding-planner",
    "notes": [
     "EX has 1583 dosing records (EXTRT ZANOMALINE / PLACEBO); duration and cumulative dose derivable."
    ],
    "method": "Descriptive",
    "population": "Safety",
    "timepoint": null,
    "imputation": "none",
    "subgroup": null,
    "comparison": "by treatment group",
    "objectives": [],
    "endpoints": [],
    "regulatory_rule": "ICH E3 §12.1",
    "adam": [
     "ADSL",
     "ADEX"
    ],
    "sdtm": [
     "EX",
     "EC"
    ],
    "analysisSet": "Safety Population",
    "analysisSetCond": "SAFFL = 'Y'",
    "dataSubset": "PARAMCD IN ('TRTDUR','CUMDOSE','AVGDD')",
    "purpose": "ICH E3 §12.1 extent of exposure to study drug.",
    "generatedMd": "# 14-4.01  Summary of Planned Exposure to Study Drug\n\n**Protocol:** CDISCPILOT01  |  **Population:** Safety Population  |  **Reason:** CONVENTION\n\n**Analysis set:** `SAFFL = 'Y'`  —  Placebo N=86, Zanomaline Low N=0, Zanomaline High N=0, Total N=86\n\n| Statistic | Placebo (N=86) | Zanomaline Low Dose (54 mg) (N=0) | Zanomaline High Dose (81 mg) (N=0) |\n|---|---|---|---|\n| **Exposure — AVGDD** |  |  |  |\n| n | 86 | - | - |\n| Mean (SD) | 0.0 (0.00) | - (-) | - (-) |\n| Median | 0.0 | - | - |\n| Range | (0, 0) | (-, -) | (-, -) |\n| **Exposure — CUMDOSE** |  |  |  |\n| n | 86 | - | - |\n| Mean (SD) | 0.0 (0.00) | - (-) | - (-) |\n| Median | 0.0 | - | - |\n| Range | (0, 0) | (-, -) | (-, -) |\n| **Exposure — TRTDUR** |  |  |  |\n| n | 86 | - | - |\n| Mean (SD) | -Inf (-) | - (-) | - (-) |\n| Median | 182.0 | - | - |\n| Range | (-Inf, 210) | (-, -) | (-, -) |\n\n---\n\n### Notes\n\n- ADEX parameters derived from SDTM EX (1583 dosing records; EXTRT ZANOMALINE / PLACEBO): TRTDUR = last EXENDT - first EXSTDT + 1; CUMDOSE = sum(EXDOSE); AVGDD = CUMDOSE / TRTDUR.\n- EXDURGR1 duration bands must be defined in the ADaM spec; study length is 28 weeks (TS LENGTH P28W).\n- N-GATE CAVEAT: this study has 17 randomized subjects (Placebo 5 / Low 5 / High 7). All inferential statistics are illustrative and must not be interpreted.\n- All values computed from ADaM via the persisted ARD (`ard.csv`); no value is hand-entered.\n- Rounding: SAS convention (half away from zero), applied at display time only.\n\n> **N-GATE WARNING.** This study randomized 17 subjects (Placebo 5 / Zanomaline Low 5 / Zanomaline High 7). Every inferential statistic in this display is **illustrative only** and must not be interpreted as evidence of effect or of absence of effect.\n",
    "ardJson": "[{\"group1\":\"Placebo\",\"variable\":\"AVAL\",\"variable_level\":\"AVGDD\",\"context\":\"descriptive\",\"stat_name\":\"N\",\"stat\":86,\"_row\":\"Placebo.AVGDD.1\"},{\"group1\":\"Placebo\",\"variable\":\"AVAL\",\"variable_level\":\"AVGDD\",\"context\":\"descriptive\",\"stat_name\":\"mean\",\"stat\":0,\"_row\":\"Placebo.AVGDD.2\"},{\"group1\":\"Placebo\",\"variable\":\"AVAL\",\"variable_level\":\"AVGDD\",\"context\":\"descriptive\",\"stat_name\":\"sd\",\"stat\":0,\"_row\":\"Placebo.AVGDD.3\"},{\"group1\":\"Placebo\",\"variable\":\"AVAL\",\"variable_level\":\"AVGDD\",\"context\":\"descriptive\",\"stat_name\":\"median\",\"stat\":0,\"_row\":\"Placebo.AVGDD.4\"},{\"group1\":\"Placebo\",\"variable\":\"AVAL\",\"variable_level\":\"AVGDD\",\"context\":\"descriptive\",\"stat_name\":\"min\",\"stat\":0,\"_row\":\"Placebo.AVGDD.5\"},{\"group1\":\"Placebo\",\"variable\":\"AVAL\",\"variable_level\":\"AVGDD\",\"context\":\"descriptive\",\"stat_name\":\"max\",\"stat\":0,\"_row\":\"Placebo.AVGDD.6\"},{\"group1\":\"Placebo\",\"variable\":\"AVAL\",\"variable_level\":\"CUMDOSE\",\"context\":\"descriptive\",\"stat_name\":\"N\",\"stat\":86,\"_row\":\"Placebo.CUMDOSE.1\"},{\"group1\":\"Placebo\",\"variable\":\"AVAL\",\"variable_level\":\"CUMDOSE\",\"context\":\"descriptive\",\"stat_name\":\"mean\",\"stat\":0,\"_row\":\"Placebo.CUMDOSE.2\"},{\"group1\":\"Placebo\",\"variable\":\"AVAL\",\"variable_level\":\"CUMDOSE\",\"context\":\"descriptive\",\"stat_name\":\"sd\",\"stat\":0,\"_row\":\"Placebo.CUMDOSE.3\"},{\"group1\":\"Placebo\",\"variable\":\"AVAL\",\"variable_level\":\"CUMDOSE\",\"context\":\"descriptive\",\"stat_name\":\"median\",\"stat\":0,\"_row\":\"Placebo.CUMDOSE.4\"},{\"group1\":\"Placebo\",\"variable\":\"AVAL\",\"variable_level\":\"CUMDOSE\",\"context\":\"descriptive\",\"stat_name\":\"min\",\"stat\":0,\"_row\":\"Placebo.CUMDOSE.5\"},{\"group1\":\"Placebo\",\"variable\":\"AVAL\",\"variable_level\":\"CUMDOSE\",\"context\":\"descriptive\",\"stat_name\":\"max\",\"stat\":0,\"_row\":\"Placebo.CUMDOSE.6\"},{\"group1\":\"Placebo\",\"variable\":\"AVAL\",\"variable_level\":\"TRTDUR\",\"context\":\"descriptive\",\"stat_name\":\"N\",\"stat\":86,\"_row\":\"Placebo.TRTDUR.1\"},{\"group1\":\"Placebo\",\"variable\":\"AVAL\",\"variable_level\":\"TRTDUR\",\"context\":\"descriptive\",\"stat_name\":\"mean\",\"stat\":null,\"_row\":\"Placebo.TRTDUR.2\"},{\"group1\":\"Placebo\",\"variable\":\"AVAL\",\"variable_level\":\"TRTDUR\",\"context\":\"descriptive\",\"stat_name\":\"sd\",\"stat\":null,\"_row\":\"Placebo.TRTDUR.3\"},{\"group1\":\"Placebo\",\"variable\":\"AVAL\",\"variable_level\":\"TRTDUR\",\"context\":\"descriptive\",\"stat_name\":\"median\",\"stat\":182,\"_row\":\"Placebo.TRTDUR.4\"},{\"group1\":\"Placebo\",\"variable\":\"AVAL\",\"variable_level\":\"TRTDUR\",\"context\":\"descriptive\",\"stat_name\":\"min\",\"stat\":null,\"_row\":\"Placebo.TRTDUR.5\"},{\"group1\":\"Placebo\",\"variable\":\"AVAL\",\"variable_level\":\"TRTDUR\",\"context\":\"descriptive\",\"stat_name\":\"max\",\"stat\":210,\"_row\":\"Placebo.TRTDUR.6\"}]\n",
    "generateR": null,
    "generateRPath": null,
    "isFigure": false,
    "figurePng": null
   }
  },
  {
   "id": "tlf:reg-conmeds-summary",
   "type": "TLF",
   "tier": 2,
   "label": "T-14-7.04",
   "sublabel": "Summary of Concomitant Medica…",
   "title": "Summary of Concomitant Medications",
   "status": "generated",
   "unresolved": false,
   "absent": false,
   "isFigure": false,
   "meta": {
    "candidate_id": "reg-conmeds-summary",
    "final_id": "T-14-7.04",
    "dir_id": "T-14-7.04",
    "type": "Table",
    "category": "conmeds",
    "cat_label": "Concomitant Medications",
    "title": "Summary of Concomitant Medications",
    "status": "generated",
    "status_reason": null,
    "priority": "supportive",
    "produced_by": "regulatory-scaffolding-planner",
    "notes": [
     "CM present, 68 records across 14 subjects. CM is not WHO-DD coded in this extract (no CMDECOD/CMCLAS) — summarize by verbatim CMTRT and note the absence of a coded therapeutic class."
    ],
    "method": "Incidence",
    "population": "Safety",
    "timepoint": null,
    "imputation": "none",
    "subgroup": null,
    "comparison": "by treatment group",
    "objectives": [],
    "endpoints": [],
    "regulatory_rule": "ICH E3 §11.2",
    "adam": [
     "ADSL",
     "ADCM"
    ],
    "sdtm": [
     "CM"
    ],
    "analysisSet": "Safety Population",
    "analysisSetCond": "SAFFL = 'Y'",
    "dataSubset": "(all concomitant-medication records)",
    "purpose": "ICH E3 §11.2 concomitant medications, safety context.",
    "generatedMd": "# 14-7.04  Summary of Concomitant Medications\n\n**Protocol:** CDISCPILOT01  |  **Population:** Safety Population  |  **Reason:** CONVENTION\n\n**Analysis set:** `SAFFL = 'Y'`  —  Placebo N=86, Zanomaline Low N=0, Zanomaline High N=0, Total N=86\n\nConcomitant medications are NOT WHO-DD coded in this extract (no CMDECOD, no CMCLAS/CMATC), so no therapeutic-class hierarchy is producible. Medications are summarized by verbatim CMTRT under a single explicit placeholder class. Critic finding R-6.\n\n| System Organ Class / Preferred Term | Placebo (N=86) | Zanomaline Low Dose (54 mg) (N=0) | Zanomaline High Dose (81 mg) (N=0) |\n|---|---|---|---|\n| **Subjects with at least one event** | 77 (89.5%) | 0 (-%) | 0 (-%) |\n| **(uncoded - no WHO-DD therapeutic class in source)** | 77 (89.5%) | 0 (-%) | 0 (-%) |\n| &nbsp;&nbsp;ACETAMINOPHEN | 2 (2.3%) | 0 (-%) | 0 (-%) |\n| &nbsp;&nbsp;ADALAT | 2 (2.3%) | 0 (-%) | 0 (-%) |\n| &nbsp;&nbsp;ADVIL | 2 (2.3%) | 0 (-%) | 0 (-%) |\n| &nbsp;&nbsp;AEROBID | 2 (2.3%) | 0 (-%) | 0 (-%) |\n| &nbsp;&nbsp;ALBUTEROL | 2 (2.3%) | 0 (-%) | 0 (-%) |\n| &nbsp;&nbsp;ALEVE | 1 (1.2%) | 0 (-%) | 0 (-%) |\n| &nbsp;&nbsp;ALLEGRA | 1 (1.2%) | 0 (-%) | 0 (-%) |\n| &nbsp;&nbsp;ALPHAGAN | 1 (1.2%) | 0 (-%) | 0 (-%) |\n| &nbsp;&nbsp;ALTACE | 1 (1.2%) | 0 (-%) | 0 (-%) |\n| &nbsp;&nbsp;AMOXICILLIN | 1 (1.2%) | 0 (-%) | 0 (-%) |\n| &nbsp;&nbsp;AMPICILLIN | 1 (1.2%) | 0 (-%) | 0 (-%) |\n| &nbsp;&nbsp;ANTIHISTAMINES FOR SYSTEMIC USE | 1 (1.2%) | 0 (-%) | 0 (-%) |\n| &nbsp;&nbsp;ARICEPT | 1 (1.2%) | 0 (-%) | 0 (-%) |\n| &nbsp;&nbsp;ASA | 3 (3.5%) | 0 (-%) | 0 (-%) |\n| &nbsp;&nbsp;ASPIRIN | 21 (24.4%) | 0 (-%) | 0 (-%) |\n| &nbsp;&nbsp;ASPIRIN (E.C.) | 1 (1.2%) | 0 (-%) | 0 (-%) |\n| &nbsp;&nbsp;ATIVAN | 4 (4.7%) | 0 (-%) | 0 (-%) |\n| &nbsp;&nbsp;ATROVENT | 1 (1.2%) | 0 (-%) | 0 (-%) |\n| &nbsp;&nbsp;AUGMENTIN | 1 (1.2%) | 0 (-%) | 0 (-%) |\n| &nbsp;&nbsp;AXID | 1 (1.2%) | 0 (-%) | 0 (-%) |\n| &nbsp;&nbsp;B COMPLEX | 1 (1.2%) | 0 (-%) | 0 (-%) |\n| &nbsp;&nbsp;BACTRIM | 2 (2.3%) | 0 (-%) | 0 (-%) |\n| &nbsp;&nbsp;BENADRYL | 2 (2.3%) | 0 (-%) | 0 (-%) |\n| &nbsp;&nbsp;BENZALKONIUM CHLORIDE | 1 (1.2%) | 0 (-%) | 0 (-%) |\n| &nbsp;&nbsp;BETACAROTENE | 1 (1.2%) | 0 (-%) | 0 (-%) |\n| &nbsp;&nbsp;BETAGAN | 2 (2.3%) | 0 (-%) | 0 (-%) |\n| &nbsp;&nbsp;BROMATANE DX | 1 (1.2%) | 0 (-%) | 0 (-%) |\n| &nbsp;&nbsp;CALCIUM | 7 (8.1%) | 0 (-%) | 0 (-%) |\n| &nbsp;&nbsp;CALCIUM CARBONATE | 2 (2.3%) | 0 (-%) | 0 (-%) |\n| &nbsp;&nbsp;CARDURA | 1 (1.2%) | 0 (-%) | 0 (-%) |\n| &nbsp;&nbsp;CEFACLOR | 1 (1.2%) | 0 (-%) | 0 (-%) |\n| &nbsp;&nbsp;CENTRAL-VITE | 1 (1.2%) | 0 (-%) | 0 (-%) |\n| &nbsp;&nbsp;CENTRUM | 2 (2.3%) | 0 (-%) | 0 (-%) |\n| &nbsp;&nbsp;CENTRUM SILVER | 2 (2.3%) | 0 (-%) | 0 (-%) |\n| &nbsp;&nbsp;CEPHALOSPORIN C | 1 (1.2%) | 0 (-%) | 0 (-%) |\n| &nbsp;&nbsp;CIPRO | 2 (2.3%) | 0 (-%) | 0 (-%) |\n| &nbsp;&nbsp;CLARITIN | 2 (2.3%) | 0 (-%) | 0 (-%) |\n| &nbsp;&nbsp;COLESTID | 1 (1.2%) | 0 (-%) | 0 (-%) |\n| &nbsp;&nbsp;CORICIDIN D | 1 (1.2%) | 0 (-%) | 0 (-%) |\n| &nbsp;&nbsp;CORTICOSTEROIDS, DERMATOLOGICAL PREPARATIONS | 1 (1.2%) | 0 (-%) | 0 (-%) |\n| &nbsp;&nbsp;CORTISONE | 4 (4.7%) | 0 (-%) | 0 (-%) |\n| &nbsp;&nbsp;DALMANE | 1 (1.2%) | 0 (-%) | 0 (-%) |\n| &nbsp;&nbsp;DESONIDE | 1 (1.2%) | 0 (-%) | 0 (-%) |\n| &nbsp;&nbsp;DHEA | 1 (1.2%) | 0 (-%) | 0 (-%) |\n| &nbsp;&nbsp;DILTIAZEM | 1 (1.2%) | 0 (-%) | 0 (-%) |\n| &nbsp;&nbsp;DIPHENHYDRAMINE HYDROCHLORIDE | 1 (1.2%) | 0 (-%) | 0 (-%) |\n| &nbsp;&nbsp;DIPROLENE CREAM | 1 (1.2%) | 0 (-%) | 0 (-%) |\n| &nbsp;&nbsp;DOXYCYCLINE | 1 (1.2%) | 0 (-%) | 0 (-%) |\n| &nbsp;&nbsp;DROPERIDOL | 1 (1.2%) | 0 (-%) | 0 (-%) |\n| &nbsp;&nbsp;ECOTRIN | 2 (2.3%) | 0 (-%) | 0 (-%) |\n| &nbsp;&nbsp;ERYTHROMYCIN | 1 (1.2%) | 0 (-%) | 0 (-%) |\n| &nbsp;&nbsp;ESTRADIOL | 1 (1.2%) | 0 (-%) | 0 (-%) |\n| &nbsp;&nbsp;ESTROGEN NOS | 2 (2.3%) | 0 (-%) | 0 (-%) |\n| &nbsp;&nbsp;EUCERIN CREME | 1 (1.2%) | 0 (-%) | 0 (-%) |\n| &nbsp;&nbsp;FELDENE | 1 (1.2%) | 0 (-%) | 0 (-%) |\n| &nbsp;&nbsp;GARLIC | 1 (1.2%) | 0 (-%) | 0 (-%) |\n| &nbsp;&nbsp;GINKGO BILOBA | 2 (2.3%) | 0 (-%) | 0 (-%) |\n| &nbsp;&nbsp;GINSENG | 1 (1.2%) | 0 (-%) | 0 (-%) |\n| &nbsp;&nbsp;GLUCOPHAGE | 1 (1.2%) | 0 (-%) | 0 (-%) |\n| &nbsp;&nbsp;GLYBURIDE | 1 (1.2%) | 0 (-%) | 0 (-%) |\n| &nbsp;&nbsp;GUAIFENESIN | 1 (1.2%) | 0 (-%) | 0 (-%) |\n| &nbsp;&nbsp;GUIATUSS | 1 (1.2%) | 0 (-%) | 0 (-%) |\n| &nbsp;&nbsp;HERBAL PREPARATION | 3 (3.5%) | 0 (-%) | 0 (-%) |\n| &nbsp;&nbsp;HOMEOPATIC PREPARATION | 1 (1.2%) | 0 (-%) | 0 (-%) |\n| &nbsp;&nbsp;HYDROCHLOROTHIAZIDE | 1 (1.2%) | 0 (-%) | 0 (-%) |\n| &nbsp;&nbsp;HYDROCORTISONE | 2 (2.3%) | 0 (-%) | 0 (-%) |\n| &nbsp;&nbsp;HYDROCORTISONE VALERATE | 1 (1.2%) | 0 (-%) | 0 (-%) |\n| &nbsp;&nbsp;HYDROCORTISONE, TOPICAL | 5 (5.8%) | 0 (-%) | 0 (-%) |\n| &nbsp;&nbsp;HYGROTON | 1 (1.2%) | 0 (-%) | 0 (-%) |\n| &nbsp;&nbsp;IBUPROFEN | 6 (7.0%) | 0 (-%) | 0 (-%) |\n| &nbsp;&nbsp;ICY HOT | 1 (1.2%) | 0 (-%) | 0 (-%) |\n| &nbsp;&nbsp;IMITREX | 1 (1.2%) | 0 (-%) | 0 (-%) |\n| &nbsp;&nbsp;IMODIUM | 1 (1.2%) | 0 (-%) | 0 (-%) |\n| &nbsp;&nbsp;IMODIUM A-D | 2 (2.3%) | 0 (-%) | 0 (-%) |\n| &nbsp;&nbsp;KAOPECTATE | 1 (1.2%) | 0 (-%) | 0 (-%) |\n| &nbsp;&nbsp;KEFLEX | 1 (1.2%) | 0 (-%) | 0 (-%) |\n| &nbsp;&nbsp;LAC-HYDRIN | 1 (1.2%) | 0 (-%) | 0 (-%) |\n| &nbsp;&nbsp;LANSOPRAZOLE | 1 (1.2%) | 0 (-%) | 0 (-%) |\n| &nbsp;&nbsp;LASIX | 2 (2.3%) | 0 (-%) | 0 (-%) |\n| &nbsp;&nbsp;LEVOXINE | 1 (1.2%) | 0 (-%) | 0 (-%) |\n| &nbsp;&nbsp;LEVOXYL | 1 (1.2%) | 0 (-%) | 0 (-%) |\n| &nbsp;&nbsp;LORAZEPAM | 2 (2.3%) | 0 (-%) | 0 (-%) |\n| &nbsp;&nbsp;LUPRON | 1 (1.2%) | 0 (-%) | 0 (-%) |\n| &nbsp;&nbsp;MAALOX | 2 (2.3%) | 0 (-%) | 0 (-%) |\n| &nbsp;&nbsp;MAVIK | 1 (1.2%) | 0 (-%) | 0 (-%) |\n| &nbsp;&nbsp;MEDROXYPROGESTERONE | 1 (1.2%) | 0 (-%) | 0 (-%) |\n| &nbsp;&nbsp;METAMUCIL | 3 (3.5%) | 0 (-%) | 0 (-%) |\n| &nbsp;&nbsp;METROGEL | 1 (1.2%) | 0 (-%) | 0 (-%) |\n| &nbsp;&nbsp;METRONIDAZOLE | 1 (1.2%) | 0 (-%) | 0 (-%) |\n| &nbsp;&nbsp;MEVACOR | 1 (1.2%) | 0 (-%) | 0 (-%) |\n| &nbsp;&nbsp;MILK OF MAGNESIA | 1 (1.2%) | 0 (-%) | 0 (-%) |\n| &nbsp;&nbsp;MONOPRIL | 2 (2.3%) | 0 (-%) | 0 (-%) |\n| &nbsp;&nbsp;MOTRIN | 4 (4.7%) | 0 (-%) | 0 (-%) |\n| &nbsp;&nbsp;MULTIVIT | 1 (1.2%) | 0 (-%) | 0 (-%) |\n| &nbsp;&nbsp;MULTIVITAMIN | 15 (17.4%) | 0 (-%) | 0 (-%) |\n| &nbsp;&nbsp;MULTIVITAMINS | 6 (7.0%) | 0 (-%) | 0 (-%) |\n| &nbsp;&nbsp;MYLANTA | 2 (2.3%) | 0 (-%) | 0 (-%) |\n| &nbsp;&nbsp;NEOSPORIN /USA/ | 2 (2.3%) | 0 (-%) | 0 (-%) |\n| &nbsp;&nbsp;NIACIN | 1 (1.2%) | 0 (-%) | 0 (-%) |\n| &nbsp;&nbsp;NORVASC | 8 (9.3%) | 0 (-%) | 0 (-%) |\n| &nbsp;&nbsp;OCUVITE | 3 (3.5%) | 0 (-%) | 0 (-%) |\n| &nbsp;&nbsp;PAPAYA | 1 (1.2%) | 0 (-%) | 0 (-%) |\n| &nbsp;&nbsp;PERDIEM | 1 (1.2%) | 0 (-%) | 0 (-%) |\n| &nbsp;&nbsp;PHENAZOPYRIDINE | 1 (1.2%) | 0 (-%) | 0 (-%) |\n| &nbsp;&nbsp;PHENERGAN | 1 (1.2%) | 0 (-%) | 0 (-%) |\n| &nbsp;&nbsp;PILOCARPINE HYDROCHLORIDE | 1 (1.2%) | 0 (-%) | 0 (-%) |\n| &nbsp;&nbsp;PILOSTAT | 1 (1.2%) | 0 (-%) | 0 (-%) |\n| &nbsp;&nbsp;PNEUMOVAX | 1 (1.2%) | 0 (-%) | 0 (-%) |\n| &nbsp;&nbsp;POTASSIUM | 2 (2.3%) | 0 (-%) | 0 (-%) |\n| &nbsp;&nbsp;PREDNISONE | 1 (1.2%) | 0 (-%) | 0 (-%) |\n| &nbsp;&nbsp;PREMARIN | 6 (7.0%) | 0 (-%) | 0 (-%) |\n| &nbsp;&nbsp;PREMPRO | 2 (2.3%) | 0 (-%) | 0 (-%) |\n| &nbsp;&nbsp;PRENATAL | 1 (1.2%) | 0 (-%) | 0 (-%) |\n| &nbsp;&nbsp;PRILOSEC | 4 (4.7%) | 0 (-%) | 0 (-%) |\n| &nbsp;&nbsp;PRINIVIL | 1 (1.2%) | 0 (-%) | 0 (-%) |\n| &nbsp;&nbsp;PROMETHAZINE HCL W/CODEINE | 1 (1.2%) | 0 (-%) | 0 (-%) |\n| &nbsp;&nbsp;PROPINE | 2 (2.3%) | 0 (-%) | 0 (-%) |\n| &nbsp;&nbsp;PROPULSID | 1 (1.2%) | 0 (-%) | 0 (-%) |\n| &nbsp;&nbsp;PROVERA | 4 (4.7%) | 0 (-%) | 0 (-%) |\n| &nbsp;&nbsp;PSEUDO-CHLOR | 1 (1.2%) | 0 (-%) | 0 (-%) |\n| &nbsp;&nbsp;PSORCON | 1 (1.2%) | 0 (-%) | 0 (-%) |\n| &nbsp;&nbsp;QUININE SULFATE | 1 (1.2%) | 0 (-%) | 0 (-%) |\n| &nbsp;&nbsp;RELAFEN | 2 (2.3%) | 0 (-%) | 0 (-%) |\n| &nbsp;&nbsp;RIOPAN | 1 (1.2%) | 0 (-%) | 0 (-%) |\n| &nbsp;&nbsp;ROBITUSSIN | 2 (2.3%) | 0 (-%) | 0 (-%) |\n| &nbsp;&nbsp;ROBITUSSIN-DM | 3 (3.5%) | 0 (-%) | 0 (-%) |\n| &nbsp;&nbsp;SINEMET | 1 (1.2%) | 0 (-%) | 0 (-%) |\n| &nbsp;&nbsp;SUDAFED | 3 (3.5%) | 0 (-%) | 0 (-%) |\n| &nbsp;&nbsp;SULFACETAMIDE | 2 (2.3%) | 0 (-%) | 0 (-%) |\n| &nbsp;&nbsp;SULFAMETHOXAZOLE | 1 (1.2%) | 0 (-%) | 0 (-%) |\n| &nbsp;&nbsp;SYNTHROID | 5 (5.8%) | 0 (-%) | 0 (-%) |\n| &nbsp;&nbsp;TERAZOL | 1 (1.2%) | 0 (-%) | 0 (-%) |\n| &nbsp;&nbsp;THERAGRAN-M | 1 (1.2%) | 0 (-%) | 0 (-%) |\n| &nbsp;&nbsp;TIMOPTIC | 3 (3.5%) | 0 (-%) | 0 (-%) |\n| &nbsp;&nbsp;TRIAMCINOLONE | 1 (1.2%) | 0 (-%) | 0 (-%) |\n| &nbsp;&nbsp;TRIMOX | 1 (1.2%) | 0 (-%) | 0 (-%) |\n| &nbsp;&nbsp;TRUSOPT | 2 (2.3%) | 0 (-%) | 0 (-%) |\n| &nbsp;&nbsp;TUMS | 2 (2.3%) | 0 (-%) | 0 (-%) |\n| &nbsp;&nbsp;TYLENOL | 8 (9.3%) | 0 (-%) | 0 (-%) |\n| &nbsp;&nbsp;TYLENOL SINUS | 1 (1.2%) | 0 (-%) | 0 (-%) |\n| &nbsp;&nbsp;VENTOLIN | 2 (2.3%) | 0 (-%) | 0 (-%) |\n| &nbsp;&nbsp;VITAMIN B12 | 6 (7.0%) | 0 (-%) | 0 (-%) |\n| &nbsp;&nbsp;VITAMIN C | 9 (10.5%) | 0 (-%) | 0 (-%) |\n| &nbsp;&nbsp;VITAMIN D | 1 (1.2%) | 0 (-%) | 0 (-%) |\n| &nbsp;&nbsp;VITAMIN E | 21 (24.4%) | 0 (-%) | 0 (-%) |\n| &nbsp;&nbsp;VITAMINS | 1 (1.2%) | 0 (-%) | 0 (-%) |\n| &nbsp;&nbsp;WESTCORT | 1 (1.2%) | 0 (-%) | 0 (-%) |\n| &nbsp;&nbsp;XANAX | 1 (1.2%) | 0 (-%) | 0 (-%) |\n| &nbsp;&nbsp;ZESTRIL | 2 (2.3%) | 0 (-%) | 0 (-%) |\n| &nbsp;&nbsp;ZINC | 2 (2.3%) | 0 (-%) | 0 (-%) |\n| &nbsp;&nbsp;ZINC OXIDE | 1 (1.2%) | 0 (-%) | 0 (-%) |\n| &nbsp;&nbsp;ZITHROMAX | 1 (1.2%) | 0 (-%) | 0 (-%) |\n| &nbsp;&nbsp;ZOCOR | 3 (3.5%) | 0 (-%) | 0 (-%) |\n| &nbsp;&nbsp;ZOLOFT | 1 (1.2%) | 0 (-%) | 0 (-%) |\n\n---\n\n### Notes\n\n- *** NOT WHO-DD CODED *** SDTM CM in this extract has no CMDECOD and no CMCLAS/CMATC therapeutic-class variables — only verbatim CMTRT (68 records, 14 subjects). The conventional 'by therapeutic class then preferred term' hierarchy is NOT producible.\n- Summarize by verbatim CMTRT with an explicit footnote that medications are uncoded. Critic finding R-6.\n- N-GATE CAVEAT: this study has 17 randomized subjects (Placebo 5 / Low 5 / High 7). All inferential statistics are illustrative and must not be interpreted.\n- Cells show n (%) subjects.\n- All values computed from ADaM via the persisted ARD (`ard.csv`); no value is hand-entered.\n- Rounding: SAS convention (half away from zero), applied at display time only.\n\n> **N-GATE WARNING.** This study randomized 17 subjects (Placebo 5 / Zanomaline Low 5 / Zanomaline High 7). Every inferential statistic in this display is **illustrative only** and must not be interpreted as evidence of effect or of absence of effect.\n",
    "ardJson": "[{\"group1\":\"Placebo\",\"variable\":\"OVERALL\",\"variable_level\":\"Any event\",\"context\":\"incidence\",\"stat_name\":\"n_subjects\",\"stat\":77},{\"group1\":\"Placebo\",\"variable\":\"OVERALL\",\"variable_level\":\"Any event\",\"context\":\"incidence\",\"stat_name\":\"pct_subjects\",\"stat\":89.5349},{\"group1\":\"Placebo\",\"variable\":\"OVERALL\",\"variable_level\":\"Any event\",\"context\":\"incidence\",\"stat_name\":\"n_events\",\"stat\":2860},{\"group1\":\"Zanomaline Low Dose (54 mg)\",\"variable\":\"OVERALL\",\"variable_level\":\"Any event\",\"context\":\"incidence\",\"stat_name\":\"n_subjects\",\"stat\":0},{\"group1\":\"Zanomaline Low Dose (54 mg)\",\"variable\":\"OVERALL\",\"variable_level\":\"Any event\",\"context\":\"incidence\",\"stat_name\":\"pct_subjects\",\"stat\":null},{\"group1\":\"Zanomaline Low Dose (54 mg)\",\"variable\":\"OVERALL\",\"variable_level\":\"Any event\",\"context\":\"incidence\",\"stat_name\":\"n_events\",\"stat\":0},{\"group1\":\"Zanomaline High Dose (81 mg)\",\"variable\":\"OVERALL\",\"variable_level\":\"Any event\",\"context\":\"incidence\",\"stat_name\":\"n_subjects\",\"stat\":0},{\"group1\":\"Zanomaline High Dose (81 mg)\",\"variable\":\"OVERALL\",\"variable_level\":\"Any event\",\"context\":\"incidence\",\"stat_name\":\"pct_subjects\",\"stat\":null},{\"group1\":\"Zanomaline High Dose (81 mg)\",\"variable\":\"OVERALL\",\"variable_level\":\"Any event\",\"context\":\"incidence\",\"stat_name\":\"n_events\",\"stat\":0},{\"group1\":\"Placebo\",\"variable\":\"SOC\",\"variable_level\":\"(uncoded - no WHO-DD therapeutic class in source)\",\"context\":\"incidence\",\"stat_name\":\"n_subjects\",\"stat\":77},{\"group1\":\"Placebo\",\"variable\":\"SOC\",\"variable_level\":\"(uncoded - no WHO-DD therapeutic class in source)\",\"context\":\"incidence\",\"stat_name\":\"pct_subjects\",\"stat\":89.5349},{\"group1\":\"Placebo\",\"variable\":\"SOC\",\"variable_level\":\"(uncoded - no WHO-DD therapeutic class in source)\",\"context\":\"incidence\",\"stat_name\":\"n_events\",\"stat\":2860},{\"group1\":\"Zanomaline Low Dose (54 mg)\",\"variable\":\"SOC\",\"variable_level\":\"(uncoded - no WHO-DD therapeutic class in source)\",\"context\":\"incidence\",\"stat_name\":\"n_subjects\",\"stat\":0},{\"group1\":\"Zanomaline Low Dose (54 mg)\",\"variable\":\"SOC\",\"variable_level\":\"(uncoded - no WHO-DD therapeutic class in source)\",\"context\":\"incidence\",\"stat_name\":\"pct_subjects\",\"stat\":null},{\"group1\":\"Zanomaline Low Dose (54 mg)\",\"variable\":\"SOC\",\"variable_level\":\"(uncoded - no WHO-DD therapeutic class in source)\",\"context\":\"incidence\",\"stat_name\":\"n_events\",\"stat\":0},{\"group1\":\"Zanomaline High Dose (81 mg)\",\"variable\":\"SOC\",\"variable_level\":\"(uncoded - no WHO-DD therapeutic class in source)\",\"context\":\"incidence\",\"stat_name\":\"n_subjects\",\"stat\":0},{\"group1\":\"Zanomaline High Dose (81 mg)\",\"variable\":\"SOC\",\"variable_level\":\"(uncoded - no WHO-DD therapeutic class in source)\",\"context\":\"incidence\",\"stat_name\":\"pct_subjects\",\"stat\":null},{\"group1\":\"Zanomaline High Dose (81 mg)\",\"variable\":\"SOC\",\"variable_level\":\"(uncoded - no WHO-DD therapeutic class in source)\",\"context\":\"incidence\",\"stat_name\":\"n_events\",\"stat\":0},{\"group1\":\"Placebo\",\"variable\":\"PT|(uncoded - no WHO-DD therapeutic class in source)\",\"variable_level\":\"ACETAMINOPHEN\",\"context\":\"incidence\",\"stat_name\":\"n_subjects\",\"stat\":2},{\"group1\":\"Placebo\",\"variable\":\"PT|(uncoded - no WHO-DD therapeutic class in source)\",\"variable_level\":\"ACETAMINOPHEN\",\"context\":\"incidence\",\"stat_name\":\"pct_subjects\",\"stat\":2.3256},{\"group1\":\"Placebo\",\"variable\":\"PT|(uncoded - no WHO-DD therapeutic class in source)\",\"variable_level\":\"ACETAMINOPHEN\",\"context\":\"incidence\",\"stat_name\":\"n_events\",\"stat\":20},{\"group1\":\"Zanomaline Low Dose (54 mg)\",\"variable\":\"PT|(uncoded - no WHO-DD therapeutic class in source)\",\"variable_level\":\"ACETAMINOPHEN\",\"context\":\"incidence\",\"stat_name\":\"n_subjects\",\"stat\":0},{\"group1\":\"Zanomaline Low Dose (54 mg)\",\"variable\":\"PT|(uncoded - no WHO-DD therapeutic class in source)\",\"variable_level\":\"ACETAMINOPHEN\",\"context\":\"incidence\",\"stat_name\":\"pct_subjects\",\"stat\":null},{\"group1\":\"Zanomaline Low Dose (54 mg)\",\"variable\":\"PT|(uncoded - no WHO-DD therapeutic class in source)\",\"variable_level\":\"ACETAMINOPHEN\",\"context\":\"incidence\",\"stat_name\":\"n_events\",\"stat\":0},{\"group1\":\"Zanomaline High Dose (81 mg)\",\"variable\":\"PT|(uncoded - no WHO-DD therapeutic class in source)\",\"variable_level\":\"ACETAMINOPHEN\",\"context\":\"incidence\",\"stat_name\":\"n_subjects\",\"stat\":0},{\"group1\":\"Zanomaline High Dose (81 mg)\",\"variable\":\"PT|(uncoded - no WHO-DD therapeutic class in source)\",\"variable_level\":\"ACETAMINOPHEN\",\"context\":\"incidence\",\"stat_name\":\"pct_subjects\",\"stat\":null},{\"group1\":\"Zanomaline High Dose (81 mg)\",\"variable\":\"PT|(uncoded - no WHO-DD therapeutic class in source)\",\"variable_level\":\"ACETAMINOPHEN\",\"context\":\"incidence\",\"stat_name\":\"n_events\",\"stat\":0},{\"group1\":\"Placebo\",\"variable\":\"PT|(uncoded - no WHO-DD therapeutic class in source)\",\"variable_level\":\"ADALAT\",\"context\":\"incidence\",\"stat_name\":\"n_subjects\",\"stat\":2},{\"group1\":\"Placebo\",\"variable\":\"PT|(uncoded - no WHO-DD therapeutic class in source)\",\"variable_level\":\"ADALAT\",\"context\":\"incidence\",\"stat_name\":\"pct_subjects\",\"stat\":2.3256},{\"group1\":\"Placebo\",\"variable\":\"PT|(uncoded - no WHO-DD therapeutic class in source)\",\"variable_level\":\"ADALAT\",\"context\":\"incidence\",\"stat_name\":\"n_events\",\"stat\":9},{\"group1\":\"Zanomaline Low Dose (54 mg)\",\"variable\":\"PT|(uncoded - no WHO-DD therapeutic class in source)\",\"variable_level\":\"ADALAT\",\"context\":\"incidence\",\"stat_name\":\"n_subjects\",\"stat\":0},{\"group1\":\"Zanomaline Low Dose (54 mg)\",\"variable\":\"PT|(uncoded - no WHO-DD therapeutic class in source)\",\"variable_level\":\"ADALAT\",\"context\":\"incidence\",\"stat_name\":\"pct_subjects\",\"stat\":null},{\"group1\":\"Zanomaline Low Dose (54 mg)\",\"variable\":\"PT|(uncoded - no WHO-DD therapeutic class in source)\",\"variable_level\":\"ADALAT\",\"context\":\"incidence\",\"stat_name\":\"n_events\",\"stat\":0},{\"group1\":\"Zanomaline High Dose (81 mg)\",\"variable\":\"PT|(uncoded - no WHO-DD therapeutic class in source)\",\"variable_level\":\"ADALAT\",\"context\":\"incidence\",\"stat_name\":\"n_subjects\",\"stat\":0},{\"group1\":\"Zanomaline High Dose (81 mg)\",\"variable\":\"PT|(uncoded - no WHO-DD therapeutic class in source)\",\"variable_level\":\"ADALAT\",\"context\":\"incidence\",\"stat_name\":\"pct_subjects\",\"stat\":null},{\"group1\":\"Zanomaline High Dose (81 mg)\",\"variable\":\"PT|(uncoded - no WHO-DD therapeutic class in source)\",\"variable_level\":\"ADALAT\",\"context\":\"incidence\",\"stat_name\":\"n_events\",\"stat\":0},{\"group1\":\"Placebo\",\"variable\":\"PT|(uncoded - no WHO-DD therapeutic class in source)\",\"variable_level\":\"ADVIL\",\"context\":\"incidence\",\"stat_name\":\"n_subjects\",\"stat\":2},{\"group1\":\"Placebo\",\"variable\":\"PT|(uncoded - no WHO-DD therapeutic class in source)\",\"variable_level\":\"ADVIL\",\"context\":\"incidence\",\"stat_name\":\"pct_subjects\",\"stat\":2.3256},{\"group1\":\"Placebo\",\"variable\":\"PT|(uncoded - no WHO-DD therapeutic class in source)\",\"variable_level\":\"ADVIL\",\"context\":\"incidence\",\"stat_name\":\"n_events\",\"stat\":15},{\"group1\":\"Zanomaline Low Dose (54 mg)\",\"variable\":\"PT|(uncoded - no WHO-DD therapeutic class in source)\",\"variable_level\":\"ADVIL\",\"context\":\"incidence\",\"stat_name\":\"n_subjects\",\"stat\":0},{\"group1\":\"Zanomaline Low Dose (54 mg)\",\"variable\":\"PT|(uncoded - no WHO-DD therapeutic class in source)\",\"variable_level\":\"ADVIL\",\"context\":\"incidence\",\"stat_name\":\"pct_subjects\",\"stat\":null},{\"group1\":\"Zanomaline Low Dose (54 mg)\",\"variable\":\"PT|(uncoded - no WHO-DD therapeutic class in source)\",\"variable_level\":\"ADVIL\",\"context\":\"incidence\",\"stat_name\":\"n_events\",\"stat\":0},{\"group1\":\"Zanomaline High Dose (81 mg)\",\"variable\":\"PT|(uncoded - no WHO-DD therapeutic class in source)\",\"variable_level\":\"ADVIL\",\"context\":\"incidence\",\"stat_name\":\"n_subjects\",\"stat\":0},{\"group1\":\"Zanomaline High Dose (81 mg)\",\"variable\":\"PT|(uncoded - no WHO-DD therapeutic class in source)\",\"variable_level\":\"ADVIL\",\"context\":\"incidence\",\"stat_name\":\"pct_subjects\",\"stat\":null},{\"group1\":\"Zanomaline High Dose (81 mg)\",\"variable\":\"PT|(uncoded - no WHO-DD therapeutic class in source)\",\"variable_level\":\"ADVIL\",\"context\":\"incidence\",\"stat_name\":\"n_events\",\"stat\":0},{\"group1\":\"Placebo\",\"variable\":\"PT|(uncoded - no WHO-DD therapeutic class in source)\",\"variable_level\":\"AEROBID\",\"context\":\"incidence\",\"stat_name\":\"n_subjects\",\"stat\":2},{\"group1\":\"Placebo\",\"variable\":\"PT|(uncoded - no WHO-DD therapeutic class in source)\",\"variable_level\":\"AEROBID\",\"context\":\"incidence\",\"stat_name\":\"pct_subjects\",\"stat\":2.3256},{\"group1\":\"Placebo\",\"variable\":\"PT|(uncoded - no WHO-DD therapeutic class in source)\",\"variable_level\":\"AEROBID\",\"context\":\"incidence\",\"stat_name\":\"n_events\",\"stat\":20},{\"group1\":\"Zanomaline Low Dose (54 mg)\",\"variable\":\"PT|(uncoded - no WHO-DD therapeutic class in source)\",\"variable_level\":\"AEROBID\",\"context\":\"incidence\",\"stat_name\":\"n_subjects\",\"stat\":0},{\"group1\":\"Zanomaline Low Dose (54 mg)\",\"variable\":\"PT|(uncoded - no WHO-DD therapeutic class in source)\",\"variable_level\":\"AEROBID\",\"context\":\"incidence\",\"stat_name\":\"pct_subjects\",\"stat\":null},{\"group1\":\"Zanomaline Low Dose (54 mg)\",\"variable\":\"PT|(uncoded - no WHO-DD therapeutic class in source)\",\"variable_level\":\"AEROBID\",\"context\":\"incidence\",\"stat_name\":\"n_events\",\"stat\":0},{\"group1\":\"Zanomaline High Dose (81 mg)\",\"variable\":\"PT|(uncoded - no WHO-DD therapeutic class in source)\",\"variable_level\":\"AEROBID\",\"context\":\"incidence\",\"stat_name\":\"n_subjects\",\"stat\":0},{\"group1\":\"Zanomaline High Dose (81 mg)\",\"variable\":\"PT|(uncoded - no WHO-DD therapeutic class in source)\",\"variable_level\":\"AEROBID\",\"context\":\"incidence\",\"stat_name\":\"pct_subjects\",\"stat\":null},{\"group1\":\"Zanomaline High Dose (81 mg)\",\"variable\":\"PT|(uncoded - no WHO-DD therapeutic class in source)\",\"variable_level\":\"AEROBID\",\"context\":\"incidence\",\"stat_name\":\"n_events\",\"stat\":0},{\"group1\":\"Placebo\",\"variable\":\"PT|(uncoded - no WHO-DD therapeutic class in source)\",\"variable_level\":\"ALBUTEROL\",\"context\":\"incidence\",\"stat_name\":\"n_subjects\",\"stat\":2},{\"group1\":\"Placebo\",\"variable\":\"PT|(uncoded - no WHO-DD therapeutic class in source)\",\"variable_level\":\"ALBUTEROL\",\"context\":\"incidence\",\"stat_name\":\"pct_subjects\",\"stat\":2.3256},{\"group1\":\"Placebo\",\"variable\":\"PT|(uncoded - no WHO-DD therapeutic class in source)\",\"variable_level\":\"ALBUTEROL\",\"context\":\"incidence\",\"stat_name\":\"n_events\",\"stat\":12},{\"group1\":\"Zanomaline Low Dose (54 mg)\",\"variable\":\"PT|(uncoded - no WHO-DD therapeutic class in source)\",\"variable_level\":\"ALBUTEROL\",\"context\":\"incidence\",\"stat_name\":\"n_subjects\",\"stat\":0},{\"group1\":\"Zanomaline Low Dose (54 mg)\",\"variable\":\"PT|(uncoded - no WHO-DD therapeutic class in source)\",\"variable_level\":\"ALBUTEROL\",\"context\":\"incidence\",\"stat_name\":\"pct_subjects\",\"stat\":null},{\"group1\":\"Zanomaline Low Dose (54 mg)\",\"variable\":\"PT|(uncoded - no WHO-DD therapeutic class in source)\",\"variable_level\":\"ALBUTEROL\",\"context\":\"incidence\",\"stat_name\":\"n_events\",\"stat\":0},{\"group1\":\"Zanomaline High Dose (81 mg)\",\"variable\":\"PT|(uncoded - no WHO-DD therapeutic class in source)\",\"variable_level\":\"ALBUTEROL\",\"context\":\"incidence\",\"stat_name\":\"n_subjects\",\"stat\":0},{\"group1\":\"Zanomaline High Dose (81 mg)\",\"variable\":\"PT|(uncoded - no WHO-DD therapeutic class in source)\",\"variable_level\":\"ALBUTEROL\",\"context\":\"incidence\",\"stat_name\":\"pct_subjects\",\"stat\":null},{\"group1\":\"Zanomaline High Dose (81 mg)\",\"variable\":\"PT|(uncoded - no WHO-DD therapeutic class in source)\",\"variable_level\":\"ALBUTEROL\",\"context\":\"incidence\",\"stat_name\":\"n_events\",\"stat\":0},{\"group1\":\"Placebo\",\"variable\":\"PT|(uncoded - no WHO-DD therapeutic class in source)\",\"variable_level\":\"ALEVE\",\"context\":\"incidence\",\"stat_name\":\"n_subjects\",\"stat\":1},{\"group1\":\"Placebo\",\"variable\":\"PT|(uncoded - no WHO-DD therapeutic class in source)\",\"variable_level\":\"ALEVE\",\"context\":\"incidence\",\"stat_name\":\"pct_subjects\",\"stat\":1.1628},{\"group1\":\"Placebo\",\"variable\":\"PT|(uncoded - no WHO-DD therapeutic class in source)\",\"variable_level\":\"ALEVE\",\"context\":\"incidence\",\"stat_name\":\"n_events\",\"stat\":7},{\"group1\":\"Zanomaline Low Dose (54 mg)\",\"variable\":\"PT|(uncoded - no WHO-DD therapeutic class in source)\",\"variable_level\":\"ALEVE\",\"context\":\"incidence\",\"stat_name\":\"n_subjects\",\"stat\":0},{\"group1\":\"Zanomaline Low Dose (54 mg)\",\"variable\":\"PT|(uncoded - no WHO-DD therapeutic class in source)\",\"variable_level\":\"ALEVE\",\"context\":\"incidence\",\"stat_name\":\"pct_subjects\",\"stat\":null},{\"group1\":\"Zanomaline Low Dose (54 mg)\",\"variable\":\"PT|(uncoded - no WHO-DD therapeutic class in source)\",\"variable_level\":\"ALEVE\",\"context\":\"incidence\",\"stat_name\":\"n_events\",\"stat\":0},{\"group1\":\"Zanomaline High Dose (81 mg)\",\"variable\":\"PT|(uncoded - no WHO-DD therapeutic class in source)\",\"variable_level\":\"ALEVE\",\"context\":\"incidence\",\"stat_name\":\"n_subjects\",\"stat\":0},{\"group1\":\"Zanomaline High Dose (81 mg)\",\"variable\":\"PT|(uncoded - no WHO-DD therapeutic class in source)\",\"variable_level\":\"ALEVE\",\"context\":\"incidence\",\"stat_name\":\"pct_subjects\",\"stat\":null},{\"group1\":\"Zanomaline High Dose (81 mg)\",\"variable\":\"PT|(uncoded - no WHO-DD therapeutic class in source)\",\"variable_level\":\"ALEVE\",\"context\":\"incidence\",\"stat_name\":\"n_events\",\"stat\":0},{\"group1\":\"Placebo\",\"variable\":\"PT|(uncoded - no WHO-DD therapeutic class in source)\",\"variable_level\":\"ALLEGRA\",\"context\":\"incidence\",\"stat_name\":\"n_subjects\",\"stat\":1},{\"group1\":\"Placebo\",\"variable\":\"PT|(uncoded - no WHO-DD therapeutic class in source)\",\"variable_level\":\"ALLEGRA\",\"context\":\"incidence\",\"stat_name\":\"pct_subjects\",\"stat\":1.1628},{\"group1\":\"Placebo\",\"variable\":\"PT|(uncoded - no WHO-DD therapeutic class in source)\",\"variable_level\":\"ALLEGRA\",\"context\":\"incidence\",\"stat_name\":\"n_events\",\"stat\":1},{\"group1\":\"Zanomaline Low Dose (54 mg)\",\"variable\":\"PT|(uncoded - no WHO-DD therapeutic class in source)\",\"variable_level\":\"ALLEGRA\",\"context\":\"incidence\",\"stat_name\":\"n_subjects\",\"stat\":0},{\"group1\":\"Zanomaline Low Dose (54 mg)\",\"variable\":\"PT|(uncoded - no WHO-DD therapeutic class in source)\",\"variable_level\":\"ALLEGRA\",\"context\":\"incidence\",\"stat_name\":\"pct_subjects\",\"stat\":null},{\"group1\":\"Zanomaline Low Dose (54 mg)\",\"variable\":\"PT|(uncoded - no WHO-DD therapeutic class in source)\",\"variable_level\":\"ALLEGRA\",\"context\":\"incidence\",\"stat_name\":\"n_events\",\"stat\":0},{\"group1\":\"Zanomaline High Dose (81 mg)\",\"variable\":\"PT|(uncoded - no WHO-DD therapeutic class in source)\",\"variable_level\":\"ALLEGRA\",\"context\":\"incidence\",\"stat_name\":\"n_subjects\",\"stat\":0},{\"group1\":\"Zanomaline High Dose (81 mg)\",\"variable\":\"PT|(uncoded - no WHO-DD therapeutic class in source)\",\"variable_level\":\"ALLEGRA\",\"context\":\"incidence\",\"stat_name\":\"pct_subjects\",\"stat\":null},{\"group1\":\"Zanomaline High Dose (81 mg)\",\"variable\":\"PT|(uncoded - no WHO-DD therapeutic class in source)\",\"variable_level\":\"ALLEGRA\",\"context\":\"incidence\",\"stat_name\":\"n_events\",\"stat\":0},{\"group1\":\"Placebo\",\"variable\":\"PT|(uncoded - no WHO-DD therapeutic class in source)\",\"variable_level\":\"ALPHAGAN\",\"context\":\"incidence\",\"stat_name\":\"n_subjects\",\"stat\":1},{\"group1\":\"Placebo\",\"variable\":\"PT|(uncoded - no WHO-DD therapeutic class in source)\",\"variable_level\":\"ALPHAGAN\",\"context\":\"incidence\",\"stat_name\":\"pct_subjects\",\"stat\":1.1628},{\"group1\":\"Placebo\",\"variable\":\"PT|(uncoded - no WHO-DD therapeutic class in source)\",\"variable_level\":\"ALPHAGAN\",\"context\":\"incidence\",\"stat_name\":\"n_events\",\"stat\":12},{\"group1\":\"Zanomaline Low Dose (54 mg)\",\"variable\":\"PT|(uncoded - no WHO-DD therapeutic class in source)\",\"variable_level\":\"ALPHAGAN\",\"context\":\"incidence\",\"stat_name\":\"n_subjects\",\"stat\":0},{\"group1\":\"Zanomaline Low Dose (54 mg)\",\"variable\":\"PT|(uncoded - no WHO-DD therapeutic class in source)\",\"variable_level\":\"ALPHAGAN\",\"context\":\"incidence\",\"stat_name\":\"pct_subjects\",\"stat\":null},{\"group1\":\"Zanomaline Low Dose (54 mg)\",\"variable\":\"PT|(uncoded - no WHO-DD therapeutic class in source)\",\"variable_level\":\"ALPHAGAN\",\"context\":\"incidence\",\"stat_name\":\"n_events\",\"stat\":0},{\"group1\":\"Zanomaline High Dose (81 mg)\",\"variable\":\"PT|(uncoded - no WHO-DD therapeutic class in source)\",\"variable_level\":\"ALPHAGAN\",\"context\":\"incidence\",\"stat_name\":\"n_subjects\",\"stat\":0},{\"group1\":\"Zanomaline High Dose (81 mg)\",\"variable\":\"PT|(uncoded - no WHO-DD therapeutic class in source)\",\"variable_level\":\"ALPHAGAN\",\"context\":\"incidence\",\"stat_name\":\"pct_subjects\",\"stat\":null},{\"group1\":\"Zanomaline High Dose (81 mg)\",\"variable\":\"PT|(uncoded - no WHO-DD therapeutic class in source)\",\"variable_level\":\"ALPHAGAN\",\"context\":\"incidence\",\"stat_name\":\"n_events\",\"stat\":0},{\"group1\":\"Placebo\",\"variable\":\"PT|(uncoded - no WHO-DD therapeutic class in source)\",\"variable_level\":\"ALTACE\",\"context\":\"incidence\",\"stat_name\":\"n_subjects\",\"stat\":1},{\"group1\":\"Placebo\",\"variable\":\"PT|(uncoded - no WHO-DD therapeutic class in source)\",\"variable_level\":\"ALTACE\",\"context\":\"incidence\",\"stat_name\":\"pct_subjects\",\"stat\":1.1628},{\"group1\":\"Placebo\",\"variable\":\"PT|(uncoded - no WHO-DD therapeutic class in source)\",\"variable_level\":\"ALTACE\",\"context\":\"incidence\",\"stat_name\":\"n_events\",\"stat\":4},{\"group1\":\"Zanomaline Low Dose (54 mg)\",\"variable\":\"PT|(uncoded - no WHO-DD therapeutic class in source)\",\"variable_level\":\"ALTACE\",\"context\":\"incidence\",\"stat_name\":\"n_subjects\",\"stat\":0},{\"group1\":\"Zanomaline Low Dose (54 mg)\",\"variable\":\"PT|(uncoded - no WHO-DD therapeutic class in source)\",\"variable_level\":\"ALTACE\",\"context\":\"incidence\",\"stat_name\":\"pct_subjects\",\"stat\":null},{\"group1\":\"Zanomaline Low Dose (54 mg)\",\"variable\":\"PT|(uncoded - no WHO-DD therapeutic class in source)\",\"variable_level\":\"ALTACE\",\"context\":\"incidence\",\"stat_name\":\"n_events\",\"stat\":0},{\"group1\":\"Zanomaline High Dose (81 mg)\",\"variable\":\"PT|(uncoded - no WHO-DD therapeutic class in source)\",\"variable_level\":\"ALTACE\",\"context\":\"incidence\",\"stat_name\":\"n_subjects\",\"stat\":0},{\"group1\":\"Zanomaline High Dose (81 mg)\",\"variable\":\"PT|(uncoded - no WHO-DD therapeutic class in source)\",\"variable_level\":\"ALTACE\",\"context\":\"incidence\",\"stat_name\":\"pct_subjects\",\"stat\":null},{\"group1\":\"Zanomaline High Dose (81 mg)\",\"variable\":\"PT|(uncoded - no WHO-DD therapeutic class in source)\",\"variable_level\":\"ALTACE\",\"context\":\"incidence\",\"stat_name\":\"n_events\",\"stat\":0},{\"group1\":\"Placebo\",\"variable\":\"PT|(uncoded - no WHO-DD therapeutic class in source)\",\"variable_level\":\"AMOXICILLIN\",\"context\":\"incidence\",\"stat_name\":\"n_subjects\",\"stat\":1},{\"group1\":\"Placebo\",\"variable\":\"PT|(uncoded - no WHO-DD therapeutic class in source)\",\"variable_level\":\"AMOXICILLIN\",\"context\":\"incidence\",\"stat_name\":\"pct_subjects\",\"stat\":1.1628},{\"group1\":\"Placebo\",\"variable\":\"PT|(uncoded - no WHO-DD therapeutic class in source)\",\"variable_level\":\"AMOXICILLIN\",\"context\":\"incidence\",\"stat_name\":\"n_events\",\"stat\":4},{\"group1\":\"Zanomaline Low Dose (54 mg)\",\"variable\":\"PT|(uncoded - no WHO-DD therapeutic class in source)\",\"variable_level\":\"AMOXICILLIN\",\"context\":\"incidence\",\"stat_name\":\"n_subjects\",\"stat\":0},{\"group1\":\"Zanomaline Low Dose (54 mg)\",\"variable\":\"PT|(uncoded - no WHO-DD therapeutic class in source)\",\"variable_level\":\"AMOXICILLIN\",\"context\":\"incidence\",\"stat_name\":\"pct_subjects\",\"stat\":null},{\"group1\":\"Zanomaline Low Dose (54 mg)\",\"variable\":\"PT|(uncoded - no WHO-DD therapeutic class in source)\",\"variable_level\":\"AMOXICILLIN\",\"context\":\"incidence\",\"stat_name\":\"n_events\",\"stat\":0},{\"group1\":\"Zanomaline High Dose (81 mg)\",\"variable\":\"PT|(uncoded - no WHO-DD therapeutic class in source)\",\"variable_level\":\"AMOXICILLIN\",\"context\":\"incidence\",\"stat_name\":\"n_subjects\",\"stat\":0},{\"group1\":\"Zanomaline High Dose (81 mg)\",\"variable\":\"PT|(uncoded - no WHO-DD therapeutic class in source)\",\"variable_level\":\"AMOXICILLIN\",\"context\":\"incidence\",\"stat_name\":\"pct_subjects\",\"stat\":null},{\"group1\":\"Zanomaline High Dose (81 mg)\",\"variable\":\"PT|(uncoded - no WHO-DD therapeutic class in source)\",\"variable_level\":\"AMOXICILLIN\",\"context\":\"incidence\",\"stat_name\":\"n_events\",\"stat\":0},{\"group1\":\"Placebo\",\"variable\":\"PT|(uncoded - no WHO-DD therapeutic class in source)\",\"variable_level\":\"AMPICILLIN\",\"context\":\"incidence\",\"stat_name\":\"n_subjects\",\"stat\":1},{\"group1\":\"Placebo\",\"variable\":\"PT|(uncoded - no WHO-DD therapeutic class in source)\",\"variable_level\":\"AMPICILLIN\",\"context\":\"incidence\",\"stat_name\":\"pct_subjects\",\"stat\":1.1628},{\"group1\":\"Placebo\",\"variable\":\"PT|(uncoded - no WHO-DD therapeutic class in source)\",\"variable_level\":\"AMPICILLIN\",\"context\":\"incidence\",\"stat_name\":\"n_events\",\"stat\":1},{\"group1\":\"Zanomaline Low Dose (54 mg)\",\"variable\":\"PT|(uncoded - no WHO-DD therapeutic class in source)\",\"variable_level\":\"AMPICILLIN\",\"context\":\"incidence\",\"stat_name\":\"n_subjects\",\"stat\":0},{\"group1\":\"Zanomaline Low Dose (54 mg)\",\"variable\":\"PT|(uncoded - no WHO-DD therapeutic class in source)\",\"variable_level\":\"AMPICILLIN\",\"context\":\"incidence\",\"stat_name\":\"pct_subjects\",\"stat\":null},{\"group1\":\"Zanomaline Low Dose (54 mg)\",\"variable\":\"PT|(uncoded - no WHO-DD therapeutic class in source)\",\"variable_level\":\"AMPICILLIN\",\"context\":\"incidence\",\"stat_name\":\"n_events\",\"stat\":0},{\"group1\":\"Zanomaline High Dose (81 mg)\",\"variable\":\"PT|(uncoded - no WHO-DD therapeutic class in source)\",\"variable_level\":\"AMPICILLIN\",\"context\":\"incidence\",\"stat_name\":\"n_subjects\",\"stat\":0},{\"group1\":\"Zanomaline High Dose (81 mg)\",\"variable\":\"PT|(uncoded - no WHO-DD therapeutic class in source)\",\"variable_level\":\"AMPICILLIN\",\"context\":\"incidence\",\"stat_name\":\"pct_subjects\",\"stat\":null},{\"group1\":\"Zanomaline High Dose (81 mg)\",\"variable\":\"PT|(uncoded - no WHO-DD therapeutic class in source)\",\"variable_level\":\"AMPICILLIN\",\"context\":\"incidence\",\"stat_name\":\"n_events\",\"stat\":0},{\"group1\":\"Placebo\",\"variable\":\"PT|(uncoded - no WHO-DD therapeutic class in source)\",\"variable_level\":\"ANTIHISTAMINES FOR SYSTEMIC USE\",\"context\":\"incidence\",\"stat_name\":\"n_subjects\",\"stat\":1},{\"group1\":\"Placebo\",\"variable\":\"PT|(uncoded - no WHO-DD therapeutic class in source)\",\"variable_level\":\"ANTIHISTAMINES FOR SYSTEMIC USE\",\"context\":\"incidence\",\"stat_name\":\"pct_subjects\",\"stat\":1.1628},{\"group1\":\"Placebo\",\"variable\":\"PT|(uncoded - no WHO-DD therapeutic class in source)\",\"variable_level\":\"ANTIHISTAMINES FOR SYSTEMIC USE\",\"context\":\"incidence\",\"stat_name\":\"n_events\",\"stat\":1},{\"group1\":\"Zanomaline Low Dose (54 mg)\",\"variable\":\"PT|(uncoded - no WHO-DD therapeutic class in source)\",\"variable_level\":\"ANTIHISTAMINES FOR SYSTEMIC USE\",\"context\":\"incidence\",\"stat_name\":\"n_subjects\",\"stat\":0},{\"group1\":\"Zanomaline Low Dose (54 mg)\",\"variable\":\"PT|(uncoded - no WHO-DD therapeutic class in source)\",\"variable_level\":\"ANTIHISTAMINES FOR SYSTEMIC USE\",\"context\":\"incidence\",\"stat_name\":\"pct_subjects\",\"stat\":null},{\"group1\":\"Zanomaline Low Dose (54 mg)\",\"variable\":\"PT|(uncoded - no WHO-DD therapeutic class in source)\",\"variable_level\":\"ANTIHISTAMINES FOR SYSTEMIC USE\",\"context\":\"incidence\",\"stat_name\":\"n_events\",\"stat\":0},{\"group1\":\"Zanomaline High Dose (81 mg)\",\"variable\":\"PT|(uncoded - no WHO-DD therapeutic class in source)\",\"variable_level\":\"ANTIHISTAMINES FOR SYSTEMIC USE\",\"context\":\"incidence\",\"stat_name\":\"n_subjects\",\"stat\":0},{\"group1\":\"Zanomaline High Dose (81 mg)\",\"variable\":\"PT|(uncoded - no WHO-DD therapeutic class in source)\",\"variable_level\":\"ANTIHISTAMINES FOR SYSTEMIC USE\",\"context\":\"incidence\",\"stat_name\":\"pct_subjects\",\"stat\":null},{\"group1\":\"Zanomaline High Dose (81 mg)\",\"variable\":\"PT|(uncoded - no WHO-DD therapeutic class in source)\",\"variable_level\":\"ANTIHISTAMINES FOR SYSTEMIC USE\",\"context\":\"incidence\",\"stat_name\":\"n_events\",\"stat\":0},{\"group1\":\"Placebo\",\"variable\":\"PT|(uncoded - no WHO-DD therapeutic class in source)\",\"variable_level\":\"ARICEPT\",\"context\":\"incidence\",\"stat_name\":\"n_subjects\",\"stat\":1},{\"group1\":\"Placebo\",\"variable\":\"PT|(uncoded - no WHO-DD therapeutic class in source)\",\"variable_level\":\"ARICEPT\",\"context\":\"incidence\",\"stat_name\":\"pct_subjects\",\"stat\":1.1628},{\"group1\":\"Placebo\",\"variable\":\"PT|(uncoded - no WHO-DD therapeutic class in source)\",\"variable_level\":\"ARICEPT\",\"context\":\"incidence\",\"stat_name\":\"n_events\",\"stat\":2},{\"group1\":\"Zanomaline Low Dose (54 mg)\",\"variable\":\"PT|(uncoded - no WHO-DD therapeutic class in source)\",\"variable_level\":\"ARICEPT\",\"context\":\"incidence\",\"stat_name\":\"n_subjects\",\"stat\":0},{\"group1\":\"Zanomaline Low Dose (54 mg)\",\"variable\":\"PT|(uncoded - no WHO-DD therapeutic class in source)\",\"variable_level\":\"ARICEPT\",\"context\":\"incidence\",\"stat_name\":\"pct_subjects\",\"stat\":null},{\"group1\":\"Zanomaline Low Dose (54 mg)\",\"variable\":\"PT|(uncoded - no WHO-DD therapeutic class in source)\",\"variable_level\":\"ARICEPT\",\"context\":\"incidence\",\"stat_name\":\"n_events\",\"stat\":0},{\"group1\":\"Zanomaline High Dose (81 mg)\",\"variable\":\"PT|(uncoded - no WHO-DD therapeutic class in source)\",\"variable_level\":\"ARICEPT\",\"context\":\"incidence\",\"stat_name\":\"n_subjects\",\"stat\":0},{\"group1\":\"Zanomaline High Dose (81 mg)\",\"variable\":\"PT|(uncoded - no WHO-DD therapeutic class in source)\",\"variable_level\":\"ARICEPT\",\"context\":\"incidence\",\"stat_name\":\"pct_subjects\",\"stat\":null},{\"group1\":\"Zanomaline High Dose (81 mg)\",\"variable\":\"PT|(uncoded - no WHO-DD therapeutic class in source)\",\"variable_level\":\"ARICEPT\",\"context\":\"incidence\",\"stat_name\":\"n_events\",\"stat\":0},{\"group1\":\"Placebo\",\"variable\":\"PT|(uncoded - no WHO-DD therapeutic class in source)\",\"variable_level\":\"ASA\",\"context\":\"incidence\",\"stat_name\":\"n_subjects\",\"stat\":3},{\"group1\":\"Placebo\",\"variable\":\"PT|(uncoded - no WHO-DD therapeutic class in source)\",\"variable_level\":\"ASA\",\"context\":\"incidence\",\"stat_name\":\"pct_subjects\",\"stat\":3.4884},{\"group1\":\"Placebo\",\"variable\":\"PT|(uncoded - no WHO-DD therapeutic class in source)\",\"variable_level\":\"ASA\",\"context\":\"incidence\",\"stat_name\":\"n_events\",\"stat\":39},{\"group1\":\"Zanomaline Low Dose (54 mg)\",\"variable\":\"PT|(uncoded - no WHO-DD therapeutic class in source)\",\"variable_level\":\"ASA\",\"context\":\"incidence\",\"stat_name\":\"n_subjects\",\"stat\":0},{\"group1\":\"Zanomaline Low Dose (54 mg)\",\"variable\":\"PT|(uncoded - no WHO-DD therapeutic class in source)\",\"variable_level\":\"ASA\",\"context\":\"incidence\",\"stat_name\":\"pct_subjects\",\"stat\":null},{\"group1\":\"Zanomaline Low Dose (54 mg)\",\"variable\":\"PT|(uncoded - no WHO-DD therapeutic class in source)\",\"variable_level\":\"ASA\",\"context\":\"incidence\",\"stat_name\":\"n_events\",\"stat\":0},{\"group1\":\"Zanomaline High Dose (81 mg)\",\"variable\":\"PT|(uncoded - no WHO-DD therapeutic class in source)\",\"variable_level\":\"ASA\",\"context\":\"incidence\",\"stat_name\":\"n_subjects\",\"stat\":0},{\"group1\":\"Zanomaline High Dose (81 mg)\",\"variable\":\"PT|(uncoded - no WHO-DD therapeutic class in source)\",\"variable_level\":\"ASA\",\"context\":\"incidence\",\"stat_name\":\"pct_subjects\",\"stat\":null},{\"group1\":\"Zanomaline High Dose (81 mg)\",\"variable\":\"PT|(uncoded - no WHO-DD therapeutic class in source)\",\"variable_level\":\"ASA\",\"context\":\"incidence\",\"stat_name\":\"n_events\",\"stat\":0},{\"group1\":\"Placebo\",\"variable\":\"PT|(uncoded - no WHO-DD therapeutic class in source)\",\"variable_level\":\"ASPIRIN\",\"context\":\"incidence\",\"stat_name\":\"n_subjects\",\"stat\":21},{\"group1\":\"Placebo\",\"variable\":\"PT|(uncoded - no WHO-DD therapeutic class in source)\",\"variable_level\":\"ASPIRIN\",\"context\":\"incidence\",\"stat_name\":\"pct_subjects\",\"stat\":24.4186},{\"group1\":\"Placebo\",\"variable\":\"PT|(uncoded - no WHO-DD therapeutic class in source)\",\"variable_level\":\"ASPIRIN\",\"context\":\"incidence\",\"stat_name\":\"n_events\",\"stat\":234},{\"group1\":\"Zanomaline Low Dose (54 mg)\",\"variable\":\"PT|(uncoded - no WHO-DD therapeutic class in source)\",\"variable_level\":\"ASPIRIN\",\"context\":\"incidence\",\"stat_name\":\"n_subjects\",\"stat\":0},{\"group1\":\"Zanomaline Low Dose (54 mg)\",\"variable\":\"PT|(uncoded - no WHO-DD therapeutic class in source)\",\"variable_level\":\"ASPIRIN\",\"context\":\"incidence\",\"stat_name\":\"pct_subjects\",\"stat\":null},{\"group1\":\"Zanomaline Low Dose (54 mg)\",\"variable\":\"PT|(uncoded - no WHO-DD therapeutic class in source)\",\"variable_level\":\"ASPIRIN\",\"context\":\"incidence\",\"stat_name\":\"n_events\",\"stat\":0},{\"group1\":\"Zanomaline High Dose (81 mg)\",\"variable\":\"PT|(uncoded - no WHO-DD therapeutic class in source)\",\"variable_level\":\"ASPIRIN\",\"context\":\"incidence\",\"stat_name\":\"n_subjects\",\"stat\":0},{\"group1\":\"Zanomaline High Dose (81 mg)\",\"variable\":\"PT|(uncoded - no WHO-DD therapeutic class in source)\",\"variable_level\":\"ASPIRIN\",\"context\":\"incidence\",\"stat_name\":\"pct_subjects\",\"stat\":null},{\"group1\":\"Zanomaline High Dose (81 mg)\",\"variable\":\"PT|(uncoded - no WHO-DD therapeutic class in source)\",\"variable_level\":\"ASPIRIN\",\"context\":\"incidence\",\"stat_name\":\"n_events\",\"stat\":0},{\"group1\":\"Placebo\",\"variable\":\"PT|(uncoded - no WHO-DD therapeutic class in source)\",\"variable_level\":\"ASPIRIN (E.C.)\",\"context\":\"incidence\",\"stat_name\":\"n_subjects\",\"stat\":1},{\"group1\":\"Placebo\",\"variable\":\"PT|(uncoded - no WHO-DD therapeutic class in source)\",\"variable_level\":\"ASPIRIN (E.C.)\",\"context\":\"incidence\",\"stat_name\":\"pct_subjects\",\"stat\":1.1628},{\"group1\":\"Placebo\",\"variable\":\"PT|(uncoded - no WHO-DD therapeutic class in source)\",\"variable_level\":\"ASPIRIN (E.C.)\",\"context\":\"incidence\",\"stat_name\":\"n_events\",\"stat\":12},{\"group1\":\"Zanomaline Low Dose (54 mg)\",\"variable\":\"PT|(uncoded - no WHO-DD therapeutic class in source)\",\"variable_level\":\"ASPIRIN (E.C.)\",\"context\":\"incidence\",\"stat_name\":\"n_subjects\",\"stat\":0},{\"group1\":\"Zanomaline Low Dose (54 mg)\",\"variable\":\"PT|(uncoded - no WHO-DD therapeutic class in source)\",\"variable_level\":\"ASPIRIN (E.C.)\",\"context\":\"incidence\",\"stat_name\":\"pct_subjects\",\"stat\":null},{\"group1\":\"Zanomaline Low Dose (54 mg)\",\"variable\":\"PT|(uncoded - no WHO-DD therapeutic class in source)\",\"variable_level\":\"ASPIRIN (E.C.)\",\"context\":\"incidence\",\"stat_name\":\"n_events\",\"stat\":0},{\"group1\":\"Zanomaline High Dose (81 mg)\",\"variable\":\"PT|(uncoded - no WHO-DD therapeutic class in source)\",\"variable_level\":\"ASPIRIN (E.C.)\",\"context\":\"incidence\",\"stat_name\":\"n_subjects\",\"stat\":0},{\"group1\":\"Zanomaline High Dose (81 mg)\",\"variable\":\"PT|(uncoded - no WHO-DD therapeutic class in source)\",\"variable_level\":\"ASPIRIN (E.C.)\",\"context\":\"incidence\",\"stat_name\":\"pct_subjects\",\"stat\":null},{\"group1\":\"Zanomaline High Dose (81 mg)\",\"variable\":\"PT|(uncoded - no WHO-DD therapeutic class in source)\",\"variable_level\":\"ASPIRIN (E.C.)\",\"context\":\"incidence\",\"stat_name\":\"n_events\",\"stat\":0},{\"group1\":\"Placebo\",\"variable\":\"PT|(uncoded - no WHO-DD therapeutic class in source)\",\"variable_level\":\"ATIVAN\",\"context\":\"incidence\",\"stat_name\":\"n_subjects\",\"stat\":4},{\"group1\":\"Placebo\",\"variable\":\"PT|(uncoded - no WHO-DD therapeutic class in source)\",\"variable_level\":\"ATIVAN\",\"context\":\"incidence\",\"stat_name\":\"pct_subjects\",\"stat\":4.6512},{\"group1\":\"Placebo\",\"variable\":\"PT|(uncoded - no WHO-DD therapeutic class in source)\",\"variable_level\":\"ATIVAN\",\"context\":\"incidence\",\"stat_name\":\"n_events\",\"stat\":22},{\"group1\":\"Zanomaline Low Dose (54 mg)\",\"variable\":\"PT|(uncoded - no WHO-DD therapeutic class in source)\",\"variable_level\":\"ATIVAN\",\"context\":\"incidence\",\"stat_name\":\"n_subjects\",\"stat\":0},{\"group1\":\"Zanomaline Low Dose (54 mg)\",\"variable\":\"PT|(uncoded - no WHO-DD therapeutic class in source)\",\"variable_level\":\"ATIVAN\",\"context\":\"incidence\",\"stat_name\":\"pct_subjects\",\"stat\":null},{\"group1\":\"Zanomaline Low Dose (54 mg)\",\"variable\":\"PT|(uncoded - no WHO-DD therapeutic class in source)\",\"variable_level\":\"ATIVAN\",\"context\":\"incidence\",\"stat_name\":\"n_events\",\"stat\":0},{\"group1\":\"Zanomaline High Dose (81 mg)\",\"variable\":\"PT|(uncoded - no WHO-DD therapeutic class in source)\",\"variable_level\":\"ATIVAN\",\"context\":\"incidence\",\"stat_name\":\"n_subjects\",\"stat\":0},{\"group1\":\"Zanomaline High Dose (81 mg)\",\"variable\":\"PT|(uncoded - no WHO-DD therapeutic class in source)\",\"variable_level\":\"ATIVAN\",\"context\":\"incidence\",\"stat_name\":\"pct_subjects\",\"stat\":null},{\"group1\":\"Zanomaline High Dose (81 mg)\",\"variable\":\"PT|(uncoded - no WHO-DD therap